start...

30sec fixe on breadboard
~344hz ~2.9ms per measure

Counter_?ms;AccelX;AccelY;AccelZ;AngleX;AngleY;AngleZ;GyroX;GyroY;GyroZ;Pitch;Roll;Yaw;Temperature;
0;1.008;0.004;0.001;0.208;-89.785;0.056;0.626;-3.557;-1.588;-3.978;0.076;-0.180;21.189;
1;1.008;0.004;0.001;0.208;-89.785;0.056;0.626;-3.557;-1.588;-3.978;0.076;-0.180;21.189;
2;1.008;0.004;0.001;0.208;-89.785;0.056;0.626;-3.557;-1.588;-3.978;0.076;-0.180;21.189;
3;1.008;0.004;0.001;0.208;-89.785;0.056;0.626;-3.557;-1.588;-3.978;0.076;-0.180;21.189;
4;1.008;0.004;0.001;0.208;-89.785;0.056;0.626;-3.557;-1.588;-3.978;0.076;-0.180;21.189;
5;1.008;0.004;0.001;0.208;-89.785;0.056;0.626;-3.557;-1.588;-3.978;0.076;-0.180;21.189;
6;1.008;0.004;0.001;0.208;-89.785;0.056;0.626;-3.557;-1.588;-3.978;0.076;-0.180;21.189;
7;1.008;0.004;0.001;0.208;-89.785;0.056;0.626;-3.557;-1.588;-3.978;0.076;-0.180;21.189;
8;1.008;0.004;0.001;0.208;-89.785;0.056;0.626;-3.557;-1.588;-3.978;0.076;-0.180;21.189;
9;1.008;0.004;0.001;0.208;-89.785;0.056;0.626;-3.557;-1.588;-3.978;0.076;-0.180;21.189;
10;1.013;-0.001;0.008;-0.041;-89.542;0.456;0.626;-3.695;-1.710;-4.005;0.073;-0.197;21.095;
11;1.013;-0.001;0.008;-0.041;-89.542;0.456;0.626;-3.695;-1.710;-4.005;0.073;-0.197;21.095;
12;1.013;-0.001;0.008;-0.041;-89.542;0.456;0.626;-3.695;-1.710;-4.005;0.073;-0.197;21.095;
13;1.013;-0.001;0.008;-0.041;-89.542;0.456;0.626;-3.695;-1.710;-4.005;0.073;-0.197;21.095;
14;1.013;-0.001;0.008;-0.041;-89.542;0.456;0.626;-3.695;-1.710;-4.005;0.073;-0.197;21.095;
15;1.013;-0.001;0.008;-0.041;-89.542;0.456;0.626;-3.695;-1.710;-4.005;0.073;-0.197;21.095;
16;1.013;-0.001;0.008;-0.041;-89.542;0.456;0.626;-3.695;-1.710;-4.005;0.073;-0.197;21.095;
17;1.013;-0.001;0.008;-0.041;-89.542;0.456;0.626;-3.695;-1.710;-4.005;0.073;-0.197;21.095;
18;1.013;-0.001;0.008;-0.041;-89.542;0.456;0.626;-3.695;-1.710;-4.005;0.073;-0.197;21.095;
19;1.012;0.000;-0.009;0.000;-89.489;-0.511;0.779;-3.267;-1.634;-4.032;0.081;-0.213;21.283;
20;1.012;0.000;-0.009;0.000;-89.489;-0.511;0.779;-3.267;-1.634;-4.032;0.081;-0.213;21.283;
21;1.012;0.000;-0.009;0.000;-89.489;-0.511;0.779;-3.267;-1.634;-4.032;0.081;-0.213;21.283;
22;1.012;0.000;-0.009;0.000;-89.489;-0.511;0.779;-3.267;-1.634;-4.032;0.081;-0.213;21.283;
23;1.012;0.000;-0.009;0.000;-89.489;-0.511;0.779;-3.267;-1.634;-4.032;0.081;-0.213;21.283;
24;1.012;0.000;-0.009;0.000;-89.489;-0.511;0.779;-3.267;-1.634;-4.032;0.081;-0.213;21.283;
25;1.012;0.000;-0.009;0.000;-89.489;-0.511;0.779;-3.267;-1.634;-4.032;0.081;-0.213;21.283;
26;1.012;0.000;-0.009;0.000;-89.489;-0.511;0.779;-3.267;-1.634;-4.032;0.081;-0.213;21.283;
27;1.012;0.000;-0.009;0.000;-89.489;-0.511;0.779;-3.267;-1.634;-4.032;0.081;-0.213;21.283;
28;1.012;0.000;-0.009;0.000;-89.489;-0.511;0.779;-3.267;-1.634;-4.032;0.081;-0.213;21.283;
29;1.014;0.003;0.011;0.193;-89.350;0.621;0.626;-3.542;-1.588;-4.061;0.095;-0.229;21.236;
30;1.014;0.003;0.011;0.193;-89.350;0.621;0.626;-3.542;-1.588;-4.061;0.095;-0.229;21.236;
31;1.014;0.003;0.011;0.193;-89.350;0.621;0.626;-3.542;-1.588;-4.061;0.095;-0.229;21.236;
32;1.014;0.003;0.011;0.193;-89.350;0.621;0.626;-3.542;-1.588;-4.061;0.095;-0.229;21.236;
33;1.014;0.003;0.011;0.193;-89.350;0.621;0.626;-3.542;-1.588;-4.061;0.095;-0.229;21.236;
34;1.014;0.003;0.011;0.193;-89.350;0.621;0.626;-3.542;-1.588;-4.061;0.095;-0.229;21.236;
35;1.014;0.003;0.011;0.193;-89.350;0.621;0.626;-3.542;-1.588;-4.061;0.095;-0.229;21.236;
36;1.014;0.003;0.011;0.193;-89.350;0.621;0.626;-3.542;-1.588;-4.061;0.095;-0.229;21.236;
37;1.014;0.003;0.011;0.193;-89.350;0.621;0.626;-3.542;-1.588;-4.061;0.095;-0.229;21.236;
38;1.014;0.003;0.011;0.193;-89.350;0.621;0.626;-3.542;-1.588;-4.061;0.095;-0.229;21.236;
39;1.019;-0.003;-0.030;-0.151;-88.291;-1.702;0.641;-3.496;-1.573;-4.053;0.088;-0.245;21.189;
40;1.019;-0.003;-0.030;-0.151;-88.291;-1.702;0.641;-3.496;-1.573;-4.053;0.088;-0.245;21.189;
41;1.019;-0.003;-0.030;-0.151;-88.291;-1.702;0.641;-3.496;-1.573;-4.053;0.088;-0.245;21.189;
42;1.019;-0.003;-0.030;-0.151;-88.291;-1.702;0.641;-3.496;-1.573;-4.053;0.088;-0.245;21.189;
43;1.019;-0.003;-0.030;-0.151;-88.291;-1.702;0.641;-3.496;-1.573;-4.053;0.088;-0.245;21.189;
44;1.019;-0.003;-0.030;-0.151;-88.291;-1.702;0.641;-3.496;-1.573;-4.053;0.088;-0.245;21.189;
45;1.019;-0.003;-0.030;-0.151;-88.291;-1.702;0.641;-3.496;-1.573;-4.053;0.088;-0.245;21.189;
46;1.019;-0.003;-0.030;-0.151;-88.291;-1.702;0.641;-3.496;-1.573;-4.053;0.088;-0.245;21.189;
47;1.019;-0.003;-0.030;-0.151;-88.291;-1.702;0.641;-3.496;-1.573;-4.053;0.088;-0.245;21.189;
48;1.023;0.003;0.028;0.150;-88.421;1.572;0.504;-3.450;-1.573;-4.090;0.104;-0.260;21.283;
49;1.023;0.003;0.028;0.150;-88.421;1.572;0.504;-3.450;-1.573;-4.090;0.104;-0.260;21.283;
50;1.023;0.003;0.028;0.150;-88.421;1.572;0.504;-3.450;-1.573;-4.090;0.104;-0.260;21.283;
51;1.023;0.003;0.028;0.150;-88.421;1.572;0.504;-3.450;-1.573;-4.090;0.104;-0.260;21.283;
52;1.023;0.003;0.028;0.150;-88.421;1.572;0.504;-3.450;-1.573;-4.090;0.104;-0.260;21.283;
53;1.023;0.003;0.028;0.150;-88.421;1.572;0.504;-3.450;-1.573;-4.090;0.104;-0.260;21.283;
54;1.023;0.003;0.028;0.150;-88.421;1.572;0.504;-3.450;-1.573;-4.090;0.104;-0.260;21.283;
55;1.023;0.003;0.028;0.150;-88.421;1.572;0.504;-3.450;-1.573;-4.090;0.104;-0.260;21.283;
56;1.023;0.003;0.028;0.150;-88.421;1.572;0.504;-3.450;-1.573;-4.090;0.104;-0.260;21.283;
57;1.023;0.003;0.028;0.150;-88.421;1.572;0.504;-3.450;-1.573;-4.090;0.104;-0.260;21.283;
58;1.012;0.005;0.015;0.276;-89.100;0.857;0.412;-3.099;-1.649;-4.147;0.113;-0.277;21.142;
59;1.012;0.005;0.015;0.276;-89.100;0.857;0.412;-3.099;-1.649;-4.147;0.113;-0.277;21.142;
60;1.012;0.005;0.015;0.276;-89.100;0.857;0.412;-3.099;-1.649;-4.147;0.113;-0.277;21.142;
61;1.012;0.005;0.015;0.276;-89.100;0.857;0.412;-3.099;-1.649;-4.147;0.113;-0.277;21.142;
62;1.012;0.005;0.015;0.276;-89.100;0.857;0.412;-3.099;-1.649;-4.147;0.113;-0.277;21.142;
63;1.012;0.005;0.015;0.276;-89.100;0.857;0.412;-3.099;-1.649;-4.147;0.113;-0.277;21.142;
64;1.012;0.005;0.015;0.276;-89.100;0.857;0.412;-3.099;-1.649;-4.147;0.113;-0.274;12;-3.313;-1.450;-4.961;0.209;-0.679;21.189;
319;1.020;-0.001;0.019;-0.069;-88.928;1.070;0.519;-3.069;-1.649;-4.975;0.222;-0.695;21.189;
320;1.020;-0.001;0.019;-0.069;-88.928;1.070;0.519;-3.069;-1.649;-4.975;0.222;-0.695;21.189;
321;1.020;-0.001;0.019;-0.069;-88.928;1.070;0.519;-3.069;-1.649;-4.975;0.222;-0.695;21.189;
322;1.020;-0.001;0.019;-0.069;-88.928;1.070;0.519;-3.069;-1.649;-4.975;0.222;-0.695;21.189;
323;1.020;-0.001;0.019;-0.069;-88.928;1.070;0.519;-3.069;-1.649;-4.975;0.222;-0.695;21.189;
324;1.020;-0.001;0.019;-0.069;-88.928;1.070;0.519;-3.069;-1.649;-4.975;0.222;-0.695;21.189;
325;1.020;-0.001;0.019;-0.069;-88.928;1.070;0.519;-3.069;-1.6291.189;
326;1.020;-0.001;0.019;-0.069;-88.928;1.070;0.519;-3.069;-1.649;-4.975;0.222;-0.695;21.189;
327;1.020;-0.001;0.019;-0.069;-88.928;1.070;0.519;-3.069;-1.649;-4.975;0.222;-0.695;21.189;
328;1.020;-0.001;0.019;-0.069;-88.928;1.070;0.519;-3.069;-1.649;-4.975;0.222;-0.695;21.189;
329;1.016;0.003;0.006;0.165;-89.643;0.317;0.443;-3.252;-1.771;-5.036;0.236;-0.713;21.189;
330;1.016;0.003;0.006;0.165;-89.643;0.317;0.443;-3.252;-1.771;-5.036;0.236;-0.713;21.189;
331;1.016;0.003;0.006;0.165;-89.643;0.317;0.443;-3.252;-1.771;-5.036;0.236;-0.713;21.189;
332;1.016;0.003;0.006;0.165;-89.643;0.317;0.443;-3.252;-1.771;-5.036;0.236;-0.713;21.189;
333;1.016;0.003;0.006;0.165;-89.643;0.317;0.443;-3.252;-1.771;-5.036;0.236;-0.713;21.189;
334;1.016;0.003;0.006;0.165;-89.643;0.317;0.443;-3.252;-1.771;-5.036;0.236;-0.713;21.189;
335;1.016;0.003;0.006;0.165;-89.643;0.317;0.443;-3.252;-1.771;-5.036;0.236;-0.713;21.189;
336;1.016;0.003;0.006;0.165;-89.643;0.317;0.443;-3.252;-1.771;-5.036;0.236;-0.713;21.189;
337;1.016;0.003;0.006;0.165;-89.643;0.317;0.443;-3.252;-1.771;-5.036;0.236;-0.713;21.189;
338;1.016;0.003;0.006;0.165;-89.643;0.317;0.443;-3.252;-1.771;-5.036;0.236;-0.713;21.189;
339;1.019;-0.000;0.026;-0.027;-88.545;1.455;0.382;-3.740;-1.618;-5.029;0.232;-0.730;21.236;
340;1.019;-0.000;0.026;-0.027;-88.545;1.455;0.382;-3.740;-1.618;-5.029;0.232;-0.730;21.236;
341;1.019;-0.000;0.026;-0.027;-88.545;1.455;0.382;-3.740;-1.618;-5.029;0.232;-0.730;21.236;
342;1.019;-0.000;0.026;-0.027;-88.545;1.455;0.382;-3.740;-1.618;-5.029;0.232;-0.730;21.236;
343;1.019;-0.000;0.026;-0.027;-88.545;1.455;0.382;-3.740;-1.618;-5.029;0.232;-0.730;21.236;
344;1.019;-0.000;0.026;-0.027;-88.545;1.455;0.382;-3.740;-1.618;-5.029;0.232;-0.730;21.236;
345;1.019;-0.000;0.026;-0.027;-88.545;1.455;0.382;-3.740;-1.618;-5.029;0.232;-0.730;21.236;
346;1.019;-0.000;0.026;-0.027;-88.545;1.455;0.382;-3.740;-1.618;-5.029;0.232;-0.730;21.236;
347;1.019;-0.000;0.026;-0.027;-88.545;1.455;0.382;-3.740;-1.618;-5.029;0.232;-0.730;21.236;
348;1.017;-0.001;0.007;-0.069;-89.609;0.385;0.550;-3.450;-1.664;-5.103;0.235;-0.746;21.142;
349;1.017;-0.001;0.007;-0.069;-89.609;0.385;0.550;-3.450;-1.664;-5.103;0.235;-0.746;21.142;
350;1.017;-0.001;0.007;-0.069;-89.609;0.385;0.550;-3.450;-1.664;-5.103;0.235;-0.746;21.142;
351;1.017;-0.001;0.007;-0.069;-89.609;0.385;0.550;-3.450;-1.664;-5.103;0.235;-0.746;21.142;
352;1.017;-0.001;0.007;-0.069;-89.609;0.385;0.550;-3.450;-1.664;-5.103;0.235;-0.746;21.142;
353;1.017;-0.001;0.007;-0.069;-89.609;0.385;0.550;-3.450;-1.664;-5.103;0.235;-0.746;21.142;
354;1.017;-0.001;0.007;-0.069;-89.609;0.385;0.550;-3.450;-1.664;-5.103;0.235;-0.746;21.142;
355;1.017;-0.001;0.007;-0.069;-89.609;0.385;0.550;-3.450;-1.664;-5.103;0.235;-0.746;21.142;
356;1.017;-0.001;0.007;-0.069;-89.609;0.385;0.550;-3.450;-1.664;-5.103;0.235;-0.746;21.142;
357;1.017;-0.001;0.007;-0.069;-89.609;0.385;0.550;-3.450;-1.664;-5.103;0.235;-0.746;21.142;
358;1.014;-0.000;0.017;-0.028;-89.034;0.966;0.305;-3.328;-1.435;-5.114;0.240;-0.761;21.189;
359;1.014;-0.000;0.017;-0.028;-89.034;0.966;0.305;-3.328;-1.435;-5.114;0.240;-0.761;21.189;
360;1.014;-0.000;0.017;-0.028;-89.034;0.966;0.305;-3.328;-1.435;-5.114;0.240;-0.761;21.189;
361;1.014;-0.000;0.017;-0.028;-89.034;0.966;0.305;-3.328;-1.435;-5.114;0.240;-0.761;21.189;
362;1.014;-0.000;0.017;-0.028;-89.034;0.966;0.305;-3.328;-1.435;-5.114;0.240;-0.761;21.189;
363;1.014;-0.000;0.017;-0.028;-89.034;0.966;0.305;-3.328;-1.435;-5.114;0.240;-0.761;21.189;
364;1.014;-0.000;0.017;-0.028;-89.034;0.966;0.305;-3.328;-1.435;-5.114;0.240;-0.761;21.189;
365;1.014;-0.000;0.017;-0.028;-89.034;0.966;0.305;-3.328;-1.435;-5.114;0.240;-0.761;21.189;
366;1.014;-0.000;0.017;-0.028;-89.034;0.966;0.305;-3.328;-1.435;-5.114;0.240;-0.761;21.189;
367;1.015;0.006;0.015;0.317;-89.115;0.827;0.260;-3.679;-1.435;-5.150;0.256;-0.774;21.189;
368;1.015;0.006;0.015;0.317;-89.115;0.827;0.260;-3.679;-1.435;-5.150;0.256;-0.774;21.189;
369;1.015;0.006;0.015;0.317;-89.115;0.827;0.260;-3.679;-1.435;-5.150;0.256;-0.774;21.189;
370;1.015;0.006;0.015;0.317;-89.115;0.827;0.260;-3.679;-1.435;-5.150;0.256;-0.774;21.189;
371;1.015;0.006;0.015;0.317;-89.115;0.827;0.260;-3.679;-1.435;-5.150;0.256;-0.774;21.189;
372;1.015;0.006;0.015;0.317;-89.115;0.827;0.260;-3.679;-1.435;-5.150;0.256;-0.774;21.189;
373;1.015;0.006;0.015;0.317;-89.115;0.827;0.260;-3.679;-1.435;-5.150;0.256;-0.774;21.189;
374;1.015;0.006;0.015;0.317;-89.115;0.827;0.260;-3.679;-1.435;-5.150;0.256;-0.774;21.189;
375;1.0154005;-1.756;-5.944;0.349;-1.165;21.189;
612;1.013;-0.001;0.014;-0.055;-89.211;0.787;0.489;-3.405;-1.756;-5.944;0.349;-1.165;21.189;
613;1.013;-0.001;0.014;-0.055;-89.211;0.787;0.489;-3.405;-1.756;-5.944;0.349;-1.165;21.189;
614;1.013;-0.001;0.014;-0.055;-89.211;0.787;0.489;-3.405;-1.756;-5.944;0.349;-1.165;21.189;
615;1.013;-0.001;0.014;-0.055;-89.211;0.787;0.489;-3.405;-1.756;-5.944;0.349;-1.165;21.189;
616;1.013;-0.001;0.014;-0.055;-89.211;0.787;0.489;-3.405;-1.756;-5.944;0.349;-1.165;21.189;
617;1.013;-0.001;0.014;-0.055;-89.211;0.787;0.489;-3.405;-1.756;-5.944;0.349;-1.165;21.189;
618;1.013;-0.001;0.014;-0.055;-89.211;0.787;0.489;-3.405;-1.756;-5.944;0.349;-1.165;21.189;
619;1.013;0.002;0.006;0.097;-89.668;0.318;0.611;-3.374;-1.466;-5.996;0.361;-1.181;21.283;
620;1.013;0.002;0.006;0.097;-89.668;0.318;0.611;-3.374;-1.466;-5.996;0.361;-1.181;21.283;
621;1.013;0.002;0.006;0.097;-89.668;0.318;0.611;-3.374;-1.466;-5.996;0.361;-1.181;21.283;
622;1.013;0.002;0.006;0.097;-89.668;0.318;0.611;-3.374;-1.466;-5.996;0.361;-1.181;21.283;
623;1.013;0.002;0.006;0.097;-89.668;0.318;0.611;-3.374;-1.466;-5.996;0.361;-1.181;21.283;
624;1.013;0.002;0.006;0.097;-89.668;0.318;0.611;-3.374;-1.466;-5.996;0.361;-1.181;21.283;
625;1.013;0.002;0.006;0.097;-89.668;0.318;0.611;-3.374;-1.466;-5.996;0.361;-1.181;21.283;
626;1.013;0.002;0.006;0.097;-89.668;0.318;0.611;-3.374;-1.466;-5.996;0.361;-1.181;21.283;
627;1.013;0.002;0.006;0.097;-89.668;0.318;0.611;-3.374;-1.466;-5.996;0.361;-1.181;21.283;
628;1.010;0.001;0.012;0.069;-89.304;0.693;0.519;-3.282;-1.740;-6.011;0.364;-1.197;21.142;
629;1.010;0.001;0.012;0.069;-89.304;0.693;0.519;-3.282;-1.740;-6.011;0.364;-1.197;21.142;
630;1.010;0.001;0.012;0.069;-89.304;0.693;0.519;-3.282;-1.740;-6.011;0.364;-1.197;21.142;
631;1.010;0.001;0.012;0.069;-89.304;0.693;0.519;-3.282;-1.740;-6.011;0.364;-1.197;21.142;
632;1.010;0.001;0.012;0.069;-89.304;0.693;0.519;-3.282;-1.740;-6.011;0.364;-1.197;21.142;
633;1.010;0.001;0.012;0.069;-89.304;0.693;0.519;-3.282;-1.740;-6.011;0.364;-1.197;21.142;
634;1.010;0.001;0.012;0.069;-89.304;0.693;0.519;-3.282;-1.740;-6.011;0.364;-1.197;21.142;
635;1.010;0.001;0.012;0.069;-89.304;0.693;0.519;-3.282;-1.740;-6.011;0.364;-1.197;21.142;
636;1.010;0.001;0.012;0.069;-89.304;0.693;0.519;-3.282;-1.740;-6.011;0.364;-1.197;21.142;
637;1.010;0.001;0.012;0.069;-89.304;0.693;0.519;-3.282;-1.740;-6.011;0.364;-1.197;21.142;
638;1.019;0.006;0.015;0.316;-89.118;0.824;0.382;-3.191;-1.695;-6.035;0.378;-1.214;21.142;
639;1.019;0.006;0.015;0.316;-89.118;0.824;0.382;-3.191;-1.695;-6.035;0.378;-1.214;21.142;
640;1.019;0.006;0.015;0.316;-89.118;0.824;0.382;-3.191;-1.695;-6.035;0.378;-1.214;21.142;
641;1.019;0.006;0.015;0.316;-89.118;0.824;0.382;-3.191;-1.695;-6.035;0.378;-1.214;21.142;
642;1.019;0.006;0.015;0.316;-89.118;0.824;0.382;-3.191;-1.695;-6.035;0.378;-1.214;21.142;
643;1.019;0.006;0.015;0.316;-89.118;0.824;0.382;-3.191;-1.695;-6.035;0.378;-1.214;21.142;
644;1.019;0.006;0.015;0.316;-89.118;0.824;0.382;-3.191;-1.695;-6.035;0.378;-1.214;21.142;
645;1.019;0.006;0.015;0.316;-89.118;0.824;0.382;-3.191;-1.695;-6.035;0.378;-1.214;21.142;
646;1.019;0.006;0.015;0.316;-89.118;0.824;0.382;-3.191;-1.695;-6.035;0.378;-1.214;21.142;
647;1.019;0.006;0.015;0.316;-89.118;0.824;0.382;-3.191;-1.695;-6.035;0.378;-1.214;21.142;
648;1.013;0.001;0.013;0.041;-89.281;0.718;0.519;-3.206;-1.771;-6.073;0.372;-1.232;21.189;
649;1.013;0.001;0.013;0.041;-89.281;0.718;0.519;-3.206;-1.771;-6.073;0.372;-1.232;21.189;
650;1.013;0.001;0.013;0.041;-89.281;0.718;0.519;-3.206;-1.771;-6.073;0.372;-1.232;21.189;
651;1.013;0.001;0.013;0.041;-89.281;0.718;0.519;-3.206;-1.771;-6.073;0.372;-1.232;21.189;
652;1.013;0.001;0.013;0.041;-89.281;0.718;0.519;-3.206;-1.771;-6.073;0.372;-1.232;21.189;
653;1.013;0.001;0.013;0.041;-89.281;0.718;0.519;-3.206;-1.771;-6.073;0.372;-1.232;21.189;
654;1.013;0.001;0.013;0.041;-89.281;0.718;0.519;-3.206;-1.771;-6.073;0.372;-1.232;21.189;
655;1.013;0.001;0.013;0.041;-89.281;0.718;0.519;-3.206;-1.771;-6.073;0.372;-1.232;21.189;
656;1.013;0.001;0.013;0.041;-89.281;0.718;0.519;-3.206;-1.771;-6.073;0.372;-1.232;21.189;
657;1.013;0.001;0.013;0.041;-89.281;0.718;0.519;-3.206;-1.771;-6.073;0.372;-1.232;21.189;
658;1.014;0.005;0.013;0.276;-89.219;0.731;0.489;-3.252;-1.389;-6.102;0.386;-1.246;21.189;
659;1.014;0.005;0.013;0.276;-89.219;0.731;0.489;-3.252;-1.389;-6.102;0.386;-1.246;21.189;
660;1.014;0.005;0.013;0.276;-89.219;0.731;0.489;-3.252;-1.389;-6.102;0.386;-1.246;21.189;
661;1.014;0.005;0.013;0.276;-89.219;0.731;0.489;-3.252;-1.389;-6.102;0.386;-1.246;21.189;
662;1.014;0.005;0.013;0.276;-89.219;0.731;0.489;-3.252;-1.389;-6.102;0.386;-1.246;21.189;
663;1.014;0.005;0.013;0.276;-89.219;0.731;0.489;-3.252;-1.389;-6.102;0.386;-1.246;21.189;
664;1.014;0.005;0.013;0.276;-89.219;0.731;0.489;-3.252;-1.389;-6.102;0.386;-1.246;21.189;
665;1.014;0.005;0.013;0.276;-89.219;0.731;0.489;-3.252;-1.389;-6.102;0.386;-1.246;21.189;
666;1.014;0.005;0.013;0.276;-89.219;0.731;0.489;-3.252;-1.389;-6.102;0.386;-1.246;21.189;
667;1.013;-0.001;0.006;-0.055;-89.664;0.331;0.260;-3.237;-1.710;-6.149;0.375;-1.262;21.236;
668;1.013;-0.001;0.006;-0.055;-89.664;0.331;0.260;-3.237;-1.710;-6.149;0.375;-1.262;21.236;
669;1.013;-0.001;0.00-;3.282;-1.618;-6.854;0.469;-1.624;21.142;
895;1.017;-0.004;0.013;-0.220;-89.225;0.743;0.458;-3.282;-1.618;-6.854;0.469;-1.624;21.142;
896;1.017;-0.004;0.013;-0.220;-89.225;0.743;0.458;-3.282;-1.618;-6.854;0.469;-1.624;21.142;
897;1.017;-0.004;0.013;-0.220;-89.225;0.743;0.458;-3.282;-1.618;-6.854;0.469;-1.624;21.142;
898;1.017;-0.004;0.013;-0.220;-89.225;0.743;0.458;-3.282;-1.618;-6.854;0.469;-1.624;21.142;
899;1.012;0.001;0.020;0.069;-88.878;1.120;0.260;-3.282;-1.496;-6.873;0.483;-1.640;21.142;
900;1.012;0.001;0.020;0.069;-88.878;1.120;0.260;-3.282;-1.496;-6.873;0.483;-1.640;21.142;
901;1.012;0.001;0.020;0.069;-88.878;1.120;0.260;-3.282;-1.496;-6.873;0.483;-1.640;21.142;
902;1.012;0.001;0.020;0.069;-88.878;1.120;0.260;-3.282;-1.496;-6.873;0.483;-1.640;21.142;
903;1.012;0.001;0.020;0.069;-88.878;1.120;0.260;-3.282;-1.496;-6.873;0.483;-1.640;21.142;
904;1.012;0.001;0.020;0.069;-88.878;1.120;0.260;-3.282;-1.496;-6.873;0.483;-1.640;21.142;
905;1.012;0.001;0.020;0.069;-88.878;1.120;0.260;-3.282;-1.496;-6.873;0.483;-1.640;21.142;
906;1.012;0.001;0.020;0.069;-88.878;1.120;0.260;-3.282;-1.496;-6.873;0.483;-1.640;21.142;
907;1.012;0.001;0.020;0.069;-88.878;1.120;0.260;-3.282;-1.496;-6.873;0.483;-1.640;21.142;
908;1.034;0.005;0.009;0.257;-89.461;0.474;0.412;-3.176;-1.588;-6.925;0.494;-1.655;21.189;
909;1.034;0.005;0.009;0.257;-89.461;0.474;0.412;-3.176;-1.588;-6.925;0.494;-1.655;21.189;
910;1.034;0.005;0.009;0.257;-89.461;0.474;0.412;-3.176;-1.588;-6.925;0.494;-1.655;21.189;
911;1.034;0.005;0.009;0.257;-89.461;0.474;0.412;-3.176;-1.588;-6.925;0.494;-1.655;21.189;
912;1.034;0.005;0.009;0.257;-89.461;0.474;0.412;-3.176;-1.588;-6.925;0.494;-1.655;21.189;
913;1.034;0.005;0.009;0.257;-89.461;0.474;0.412;-3.176;-1.588;-6.925;0.494;-1.655;21.189;
914;1.034;0.005;0.009;0.257;-89.461;0.474;0.412;-3.176;-1.588;-6.925;0.494;-1.655;21.189;
915;1.034;0.005;0.009;0.257;-89.461;0.474;0.412;-3.176;-1.588;-6.925;0.494;-1.655;21.189;
916;1.034;0.005;0.009;0.257;-89.461;0.474;0.412;-3.176;-1.588;-6.925;0.494;-1.655;21.189;
917;1.034;0.005;0.009;0.257;-89.461;0.474;0.412;-3.176;-1.588;-6.925;0.494;-1.655;21.189;
918;1.026;-0.000;0.009;-0.027;-89.481;0.518;0.473;-3.435;-1.542;-6.960;0.487;-1.670;21.236;
919;1.026;-0.000;0.009;-0.027;-89.481;0.518;0.473;-3.435;-1.542;-6.960;0.487;-1.670;21.236;
920;1.026;-0.000;0.009;-0.027;-89.481;0.518;0.473;-3.435;-1.542;-6.960;0.487;-1.670;21.236;
921;1.026;-0.000;0.009;-0.027;-89.481;0.518;0.473;-3.435;-1.542;-6.960;0.487;-1.670;21.236;
922;1.026;-0.000;0.009;-0.027;-89.481;0.518;0.473;-3.435;-1.542;-6.960;0.487;-1.670;21.236;
923;1.026;-0.000;0.009;-0.027;-89.481;0.518;0.473;-3.435;-1.542;-6.960;0.487;-1.670;21.236;
924;1.026;-0.000;0.009;-0.027;-89.481;0.518;0.473;-3.435;-1.542;-6.960;0.487;-1.670;21.236;
925;1.026;-0.000;0.009;-0.027;-89.481;0.518;0.473;-3.435;-1.542;-6.960;0.487;-1.670;21.236;
926;1.026;-0.000;0.009;-0.027;-89.481;0.518;0.473;-3.435;-1.542;-6.960;0.487;-1.670;21.236;
927;1.026;-0.000;0.009;-0.027;-89.481;0.518;0.473;-3.435;-1.542;-6.960;0.487;-1.670;21.236;
928;1.019;0.001;0.009;0.069;-89.515;0.480;0.473;-3.344;-1.695;-6.994;0.496;-1.688;21.236;
929;1.019;0.001;0.009;0.069;-89.515;0.480;0.473;-3.344;-1.695;-6.994;0.496;-1.688;21.236;
930;1.019;0.001;0.009;0.069;-89.515;0.480;0.473;-3.344;-1.695;-6.994;0.496;-1.688;21.236;
931;1.019;0.001;0.009;0.069;-89.515;0.480;0.473;-3.344;-1.695;-6.994;0.496;-1.688;21.236;
932;1.019;0.001;0.009;0.069;-89.515;0.480;0.473;-3.344;-1.695;-6.994;0.496;-1.688;21.236;
933;1.019;0.001;0.009;0.069;-89.515;0.480;0.473;-3.344;-1.695;-6.994;0.496;-1.688;21.236;
934;1.019;0.001;0.009;0.069;-89.515;0.480;0.473;-3.344;-1.695;-6.994;0.496;-1.688;21.236;
935;1.019;0.001;0.009;0.069;-89.515;0.480;0.473;-3.344;-1.695;-6.994;0.496;-1.688;21.236;
936;1.019;0.001;0.009;0.069;-89.515;0.480;0.473;-3.344;-1.695;-6.994;0.496;-1.688;21.236;
937;1.019;0.001;0.009;0.069;-89.515;0.480;0.473;-3.344;-1.695;-6.994;0.496;-1.688;21.236;
938;1.017;0.006;0.004;0.358;-89.565;0.248;0.641;-3.099;-1.435;-7.027;0.514;-1.703;21.283;
939;1.017;0.006;0.004;0.358;-89.565;0.248;0.641;-3.099;-1.435;-7.027;0.514;-1.703;21.283;
940;1.017;0.006;0.004;0.358;-89.565;0.248;0.641;-3.099;-1.435;-7.027;0.514;-1.703;21.283;
941;1.017;0.006;0.004;0.358;-89.565;0.248;0.641;-3.099;-1.435;-7.027;0.514;-1.703;21.283;
942;1.017;0.006;0.004;0.358;-89.565;0.248;0.641;-3.099;-1.435;-7.027;0.514;-1.703;21.283;
943;1.017;0.006;0.004;0.358;-89.565;0.248;0.641;-3.099;-1.435;-7.027;0.514;-1.703;21.283;
944;1.017;0.006;0.004;0.358;-89.565;0.248;0.641;-3.099;-1.435;-7.027;0.514;-1.703;21.283;
945;1.017;0.006;0.004;0.358;-89.565;0.248;0.641;-3.099;-1.435;-7.027;0.514;-1.703;21.283;
946;1.017;0.006;0.004;0.358;-89.565;0.248;0.641;-3.099;-1.435;-7.027;0.514;-1.703;21.283;
947;1.021;-0.004;0.014;-0.247;-89.168;0.795;0.519;-3.817;-1.481;-7.045;0.494;-1.717;21.189;
948;1.021;-0.004;0.014;-0.247;-89.168;0.795;0.519;-3.817;-1.481;-7.045;0.494;-1.717;21.189;
949;1.021;-0.004;0.014;-0.247;-89.168;0.795;0.519;-3.817;-1.481;-7.045;0.494;-1.717;21.189;
950;1.021;-0.004;0.014;-0.247;-8911.456;0.321;-3.145;-1.634;-7.763;0.624;-2.087;21.236;
1181;1.018;0.000;0.026;0.027;-88.544;1.456;0.321;-3.145;-1.634;-7.763;0.624;-2.087;21.236;
1182;1.018;0.000;0.026;0.027;-88.544;1.456;0.321;-3.145;-1.634;-7.763;0.624;-2.087;21.236;
1183;1.018;0.000;0.026;0.027;-88.544;1.456;0.321;-3.145;-1.634;-7.763;0.624;-2.087;21.236;
1184;1.018;0.000;0.026;0.027;-88.544;1.456;0.321;-3.145;-1.634;-7.763;0.624;-2.087;21.236;
1185;1.018;0.000;0.026;0.027;-88.544;1.456;0.321;-3.145;-1.634;-7.763;0.624;-2.087;21.236;
1186;1.018;0.000;0.026;0.027;-88.544;1.456;0.321;-3.145;-1.634;-7.763;0.624;-2.087;21.236;
1187;1.010;0.002;0.016;0.097;-89.095;0.900;0.534;-3.176;-1.511;-7.817;0.632;-2.103;21.283;
1188;1.010;0.002;0.016;0.097;-89.095;0.900;0.534;-3.176;-1.511;-7.817;0.632;-2.103;21.283;
1189;1.010;0.002;0.016;0.097;-89.095;0.900;0.534;-3.176;-1.511;-7.817;0.632;-2.103;21.283;
1190;1.010;0.002;0.016;0.097;-89.095;0.900;0.534;-3.176;-1.511;-7.817;0.632;-2.103;21.283;
1191;1.010;0.002;0.016;0.097;-89.095;0.900;0.534;-3.176;-1.511;-7.817;0.632;-2.103;21.283;
1192;1.010;0.002;0.016;0.097;-89.095;0.900;0.534;-3.176;-1.511;-7.817;0.632;-2.103;21.283;
1193;1.010;0.002;0.016;0.097;-89.095;0.900;0.534;-3.176;-1.511;-7.817;0.632;-2.103;21.283;
1194;1.010;0.002;0.016;0.097;-89.095;0.900;0.534;-3.176;-1.511;-7.817;0.632;-2.103;21.283;
1195;1.010;0.002;0.016;0.097;-89.095;0.900;0.534;-3.176;-1.511;-7.817;0.632;-2.103;21.283;
1196;1.010;0.002;0.016;0.097;-89.095;0.900;0.534;-3.176;-1.511;-7.817;0.632;-2.103;21.283;
1197;1.017;0.001;0.002;0.069;-89.870;0.110;0.305;-3.069;-1.588;-7.878;0.634;-2.120;21.189;
1198;1.017;0.001;0.002;0.069;-89.870;0.110;0.305;-3.069;-1.588;-7.878;0.634;-2.120;21.189;
1199;1.017;0.001;0.002;0.069;-89.870;0.110;0.305;-3.069;-1.588;-7.878;0.634;-2.120;21.189;
1200;1.017;0.001;0.002;0.069;-89.870;0.110;0.305;-3.069;-1.588;-7.878;0.634;-2.120;21.189;
1201;1.017;0.001;0.002;0.069;-89.870;0.110;0.305;-3.069;-1.588;-7.878;0.634;-2.120;21.189;
1202;1.017;0.001;0.002;0.069;-89.870;0.110;0.305;-3.069;-1.588;-7.878;0.634;-2.120;21.189;
1203;1.017;0.001;0.002;0.069;-89.870;0.110;0.305;-3.069;-1.588;-7.878;0.634;-2.120;21.189;
1204;1.017;0.001;0.002;0.069;-89.870;0.110;0.305;-3.069;-1.588;-7.878;0.634;-2.120;21.189;
1205;1.017;0.001;0.002;0.069;-89.870;0.110;0.305;-3.069;-1.588;-7.878;0.634;-2.120;21.189;
1206;1.012;-0.006;0.018;-0.345;-88.947;0.995;0.443;-3.221;-1.603;-7.870;0.622;-2.135;21.236;
1207;1.012;-0.006;0.018;-0.345;-88.947;0.995;0.443;-3.221;-1.603;-7.870;0.622;-2.135;21.236;
1208;1.012;-0.006;0.018;-0.345;-88.947;0.995;0.443;-3.221;-1.603;-7.870;0.622;-2.135;21.236;
1209;1.012;-0.006;0.018;-0.345;-88.947;0.995;0.443;-3.221;-1.603;-7.870;0.622;-2.135;21.236;
1210;1.012;-0.006;0.018;-0.345;-88.947;0.995;0.443;-3.221;-1.603;-7.870;0.622;-2.135;21.236;
1211;1.012;-0.006;0.018;-0.345;-88.947;0.995;0.443;-3.221;-1.603;-7.870;0.622;-2.135;21.236;
1212;1.012;-0.006;0.018;-0.345;-88.947;0.995;0.443;-3.221;-1.603;-7.870;0.622;-2.135;21.236;
1213;1.012;-0.006;0.018;-0.345;-88.947;0.995;0.443;-3.221;-1.603;-7.870;0.622;-2.135;21.236;
1214;1.012;-0.006;0.018;-0.345;-88.947;0.995;0.443;-3.221;-1.603;-7.870;0.622;-2.135;21.236;
1215;1.012;-0.006;0.018;-0.345;-88.947;0.995;0.443;-3.221;-1.603;-7.870;0.622;-2.135;21.236;
1216;1.012;0.000;0.013;0.000;-89.253;0.747;0.351;-3.115;-1.527;-7.914;0.639;-2.151;21.189;
1217;1.012;0.000;0.013;0.000;-89.253;0.747;0.351;-3.115;-1.527;-7.914;0.639;-2.151;21.189;
1218;1.012;0.000;0.013;0.000;-89.253;0.747;0.351;-3.115;-1.527;-7.914;0.639;-2.151;21.189;
1219;1.012;0.000;0.013;0.000;-89.253;0.747;0.351;-3.115;-1.527;-7.914;0.639;-2.151;21.189;
1220;1.012;0.000;0.013;0.000;-89.253;0.747;0.351;-3.115;-1.527;-7.914;0.639;-2.151;21.189;
1221;1.012;0.000;0.013;0.000;-89.253;0.747;0.351;-3.115;-1.527;-7.914;0.639;-2.151;21.189;
1222;1.012;0.000;0.013;0.000;-89.253;0.747;0.351;-3.115;-1.527;-7.914;0.639;-2.151;21.189;
1223;1.012;0.000;0.013;0.000;-89.253;0.747;0.351;-3.115;-1.527;-7.914;0.639;-2.151;21.189;
1224;1.012;0.000;0.013;0.000;-89.253;0.747;0.351;-3.115;-1.527;-7.914;0.639;-2.151;21.189;
1225;1.013;-0.003;0.003;-0.193;-89.736;0.180;0.336;-3.298;-1.496;-7.963;0.634;-2.165;21.283;
1226;1.013;-0.003;0.003;-0.193;-89.736;0.180;0.336;-3.298;-1.496;-7.963;0.634;-2.165;21.283;
1227;1.013;-0.003;0.003;-0.193;-89.736;0.180;0.336;-3.298;-1.496;-7.963;0.634;-2.165;21.283;
1228;1.013;-0.003;0.003;-0.193;-89.736;0.180;0.336;-3.298;-1.496;-7.963;0.634;-2.165;21.283;
1229;1.013;-0.003;0.003;-0.193;-89.736;0.180;0.336;-3.298;-1.496;-7.963;0.634;-2.165;21.283;
1230;1.013;-0.003;0.003;-0.193;-89.736;0.180;0.336;-3.298;-1.496;-7.963;0.634;-2.165;21.283;
1231;1.013;-0.003;0.003;-0.193;-89.736;0.180;0.336;-3.298;-1.496;-7.963;0.634;-2.165;21.283;
1232;1.013;-0.003;0.003;-0.193;-89.736;0.180;0.336;-3.298;-1.496;-7.963;0.634;-2.165;21.283;
1233;1.013;-0.003;0.003;-0.193;-89.736;0.180;0.336;-3.298;-1.496;-7.963;0.634;-2.165;21.283;
1234;1.013;-0.003;0.003;-0.193;-89.736;0.180;0.336;-3.298;-1.496;-7.963;0.634;-2.165;21.283;
1235;1.008;-0.003;0.007;-0.194;-89;521.189;
1458;1.016;0.003;-0.003;0.193;-89.746;-0.165;0.382;-3.053;-1.649;-8.715;0.760;-2.538;21.189;
-48.715;0.760;-2.538;21.189;
1460;1.016;0.003;-0.003;0.193;-89.746;-0.165;0.382;-3.053;-1.649;-8.715;0.760;-2.538;21.189;
1461;1.016;0.003;-0.003;0.193;-89.746;-0.165;0.382;-3.053;-1.649;-8.715;0.760;-2.538;21.189;
1462;1.016;0.003;-0.003;0.193;-89.746;-0.165;0.382;-3.053;-1.649;-8.715;0.760;-2.538;21.189;
1463;1.016;0.003;-0.003;0.193;-89.746;-0.165;0.382;-3.053;-1.649;-8.715;0.760;-2.538;21.189;
1464;1.011;-0.005;0.009;-0.277;-89.418;0.512;0.519;-3.038;-1.603;-8.732;0.746;-2.555;21.189;
1465;1.011;-0.005;0.009;-0.277;-89.418;0.512;0.519;-3.038;-1.603;-8.732;0.746;-2.555;21.189;
1466;1.011;-0.005;0.009;-0.277;-89.418;0.512;0.519;-3.038;-1.603;-8.732;0.746;-2.555;21.189;
1467;1.011;-0.005;0.009;-0.277;-89.418;0.512;0.519;-3.038;-1.603;-8.732;0.746;-2.555;21.189;
1468;1.011;-0.005;0.009;-0.277;-89.418;0.512;0.519;-3.038;-1.603;-8.732;0.746;-2.555;21.189;
1469;1.011;-0.005;0.009;-0.277;-89.418;0.512;0.519;-3.038;-1.603;-8.732;0.746;-2.555;21.189;
1470;1.011;-0.005;0.009;-0.277;-89.418;0.512;0.519;-3.038;-1.603;-8.732;0.746;-2.555;21.189;
1471;1.011;-0.005;0.009;-0.277;-89.418;0.512;0.519;-3.038;-1.603;-8.732;0.746;-2.555;21.189;
1472;1.011;-0.005;0.009;-0.277;-89.418;0.512;0.519;-3.038;-1.603;-8.732;0.746;-2.555;21.189;
1473;1.014;-0.000;0.015;-0.028;-89.158;0.841;0.397;-3.084;-1.481;-8.750;0.760;-2.569;21.189;
1474;1.014;-0.000;0.015;-0.028;-89.158;0.841;0.397;-3.084;-1.481;-8.750;0.760;-2.569;21.189;
1475;1.014;-0.000;0.015;-0.028;-89.158;0.841;0.397;-3.084;-1.481;-8.750;0.760;-2.569;21.189;
1476;1.014;-0.000;0.015;-0.028;-89.158;0.841;0.397;-3.084;-1.481;-8.750;0.760;-2.569;21.189;
1477;1.014;-0.000;0.015;-0.028;-89.158;0.841;0.397;-3.084;-1.481;-8.750;0.760;-2.569;21.189;
1478;1.014;-0.000;0.015;-0.028;-89.158;0.841;0.397;-3.084;-1.481;-8.750;0.760;-2.569;21.189;
1479;1.014;-0.000;0.015;-0.028;-89.158;0.841;0.397;-3.084;-1.481;-8.750;0.760;-2.569;21.189;
1480;1.014;-0.000;0.015;-0.028;-89.158;0.841;0.397;-3.084;-1.481;-8.750;0.760;-2.569;21.189;
1481;1.014;-0.000;0.015;-0.028;-89.158;0.841;0.397;-3.084;-1.481;-8.750;0.760;-2.569;21.189;
1482;1.014;-0.000;0.015;-0.028;-89.158;0.841;0.397;-3.084;-1.481;-8.750;0.760;-2.569;21.189;
1483;1.016;0.003;0.021;0.193;-88.828;1.156;0.565;-3.176;-1.542;-8.769;0.774;-2.586;21.283;
1484;1.016;0.003;0.021;0.193;-88.828;1.156;0.565;-3.176;-1.542;-8.769;0.774;-2.586;21.283;
1485;1.016;0.003;0.021;0.193;-88.828;1.156;0.565;-3.176;-1.542;-8.769;0.774;-2.586;21.283;
1486;1.016;0.003;0.021;0.193;-88.828;1.156;0.565;-3.176;-1.542;-8.769;0.774;-2.586;21.283;
1487;1.016;0.003;0.021;0.193;-88.828;1.156;0.565;-3.176;-1.542;-8.769;0.774;-2.586;21.283;
1488;1.016;0.003;0.021;0.193;-88.828;1.156;0.565;-3.176;-1.542;-8.769;0.774;-2.586;21.283;
1489;1.016;0.003;0.021;0.193;-88.828;1.156;0.565;-3.176;-1.542;-8.769;0.774;-2.586;21.283;
1490;1.016;0.003;0.021;0.193;-88.828;1.156;0.565;-3.176;-1.542;-8.769;0.774;-2.586;21.283;
1491;1.016;0.003;0.021;0.193;-88.828;1.156;0.565;-3.176;-1.542;-8.769;0.774;-2.586;21.283;
1492;1.017;-0.001;0.022;-0.082;-88.760;1.238;0.382;-3.344;-1.740;-8.797;0.767;-2.602;21.236;
1493;1.017;-0.001;0.022;-0.082;-88.760;1.238;0.382;-3.344;-1.740;-8.797;0.767;-2.602;21.236;
1494;1.017;-0.001;0.022;-0.082;-88.760;1.238;0.382;-3.344;-1.740;-8.797;0.767;-2.602;21.236;
1495;1.017;-0.001;0.022;-0.082;-88.760;1.238;0.382;-3.344;-1.740;-8.797;0.767;-2.602;21.236;
1496;1.017;-0.001;0.022;-0.082;-88.760;1.238;0.382;-3.344;-1.740;-8.797;0.767;-2.602;21.236;
1497;1.017;-0.001;0.022;-0.082;-88.760;1.238;0.382;-3.344;-1.740;-8.797;0.767;-2.602;21.236;
1498;1.017;-0.001;0.022;-0.082;-88.760;1.238;0.382;-3.344;-1.740;-8.797;0.767;-2.602;21.236;
1499;1.017;-0.001;0.022;-0.082;-88.760;1.238;0.382;-3.344;-1.740;-8.797;0.767;-2.602;21.236;
1500;1.017;-0.001;0.022;-0.082;-88.760;1.238;0.382;-3.344;-1.740;-8.797;0.767;-2.602;21.236;
1501;1.017;-0.001;0.022;-0.082;-88.760;1.238;0.382;-3.344;-1.740;-8.797;0.767;-2.602;21.236;
1502;1.013;0.000;0.006;0.000;-89.669;0.331;0.489;-3.145;-1.557;-8.865;0.775;-2.618;21.283;
1503;1.013;0.000;0.006;0.000;-89.669;0.331;0.489;-3.145;-1.557;-8.865;0.775;-2.618;21.283;
1504;1.013;0.000;0.006;0.000;-89.669;0.331;0.489;-3.145;-1.557;-8.865;0.775;-2.618;21.283;
1505;1.013;0.000;0.006;0.000;-89.669;0.331;0.489;-3.145;-1.557;-8.865;0.775;-2.618;21.283;
1506;1.013;0.000;0.006;0.000;-89.669;0.331;0.489;-3.145;-1.557;-8.865;0.775;-2.618;21.283;
1507;1.013;0.000;0.006;0.000;-89.669;0.331;0.489;-3.145;-1.557;-8.865;0.775;-2.618;21.283;
1508;1.013;0.000;0.006;0.000;-89.669;0.331;0.489;-3.145;-1.557;-8.865;0.775;-2.618;21.283;
1509;1.013;0.000;0.006;0.000;-89.669;0.331;0.489;-3.145;-1.557;-8.865;0.775;-2.618;21.283;
1510;1.013;0.000;0.006;0.000;-89.669;0.331;0.489;-3.145;-1.557;-8.865;0.775;-2.618;21.283;
1511;1.011;-0.003;0.004;-0.180;-89.715;0.221;0.519;-3.206;-1.527;-8.895;0.773;-2.633;21.330;
1512;1.011;-0.003;0.004;-0.180;-89.715;0.221;0.519;-3.206;-1.527;-8.895;0.773;-2.633;21.330;
1513;1.011;-0.003;0.004;-0.180;-89.715;0.221;0.519;-3.206;-1.527;-8.895;0.773;-2.633;21.330;
161;-1.634;-9.625;0.887;-2.988;21.283;
1737;1.014;-0.002;0.006;-0.110;-89.638;0.345;0.656;-3.466;-1.634;-9.625;0.887;-239;
1738;1.014;-0.002;0.006;-0.110;-89.638;0.345;0.656;-3.466;-1.634;-9.625;0.887;-2.988;21.283;
1739;1.014;-0.002;0.006;-0.110;-89.638;0.345;0.656;-3.466;-1.634;-9.625;0.887;-2.988;21.283;
1740;1.016;0.001;0.010;0.055;-89.406;0.592;0.565;-3.359;-1.618;-9.646;0.899;-3.004;21.189;
1741;1.016;0.001;0.010;0.055;-89.406;0.592;0.565;-3.359;-1.618;-9.646;0.899;-3.004;21.189;
1742;1.016;0.001;0.010;0.055;-89.406;0.592;0.565;-3.359;-1.618;-9.646;0.899;-3.004;21.189;
1743;1.016;0.001;0.010;0.055;-89.406;0.592;0.565;-3.359;-1.618;-9.646;0.899;-3.004;21.189;
1744;1.016;0.001;0.010;0.055;-89.406;0.592;0.565;-3.359;-1.618;-9.646;0.899;-3.004;21.189;
1745;1.016;0.001;0.010;0.055;-89.406;0.592;0.565;-3.359;-1.618;-9.646;0.899;-3.004;21.189;
1746;1.016;0.001;0.010;0.055;-89.406;0.592;0.565;-3.359;-1.618;-9.646;0.899;-3.004;21.189;
1747;1.016;0.001;0.010;0.055;-89.406;0.592;0.565;-3.359;-1.618;-9.646;0.899;-3.004;21.189;
1748;1.016;0.001;0.010;0.055;-89.406;0.592;0.565;-3.359;-1.618;-9.646;0.899;-3.004;21.189;
1749;1.016;0.001;0.010;0.055;-89.406;0.592;0.565;-3.359;-1.618;-9.646;0.899;-3.004;21.189;
1750;1.020;0.001;0.001;0.082;-89.908;0.041;0.351;-3.344;-1.664;-9.699;0.904;-3.021;21.236;
1751;1.020;0.001;0.001;0.082;-89.908;0.041;0.351;-3.344;-1.664;-9.699;0.904;-3.021;21.236;
1752;1.020;0.001;0.001;0.082;-89.908;0.041;0.351;-3.344;-1.664;-9.699;0.904;-3.021;21.236;
1753;1.020;0.001;0.001;0.082;-89.908;0.041;0.351;-3.344;-1.664;-9.699;0.904;-3.021;21.236;
1754;1.020;0.001;0.001;0.082;-89.908;0.041;0.351;-3.344;-1.664;-9.699;0.904;-3.021;21.236;
1755;1.020;0.001;0.001;0.082;-89.908;0.041;0.351;-3.344;-1.664;-9.699;0.904;-3.021;21.236;
1756;1.020;0.001;0.001;0.082;-89.908;0.041;0.351;-3.344;-1.664;-9.699;0.904;-3.021;21.236;
1757;1.020;0.001;0.001;0.082;-89.908;0.041;0.351;-3.344;-1.664;-9.699;0.904;-3.021;21.236;
1758;1.020;0.001;0.001;0.082;-89.908;0.041;0.351;-3.344;-1.664;-9.699;0.904;-3.021;21.236;
1759;1.019;0.000;0.004;0.000;-89.767;0.233;0.550;-3.176;-1.603;-9.722;0.905;-3.036;21.189;
1760;1.019;0.000;0.004;0.000;-89.767;0.233;0.550;-3.176;-1.603;-9.722;0.905;-3.036;21.189;
1761;1.019;0.000;0.004;0.000;-89.767;0.233;0.550;-3.176;-1.603;-9.722;0.905;-3.036;21.189;
1762;1.019;0.000;0.004;0.000;-89.767;0.233;0.550;-3.176;-1.603;-9.722;0.905;-3.036;21.189;
1763;1.019;0.000;0.004;0.000;-89.767;0.233;0.550;-3.176;-1.603;-9.722;0.905;-3.036;21.189;
1764;1.019;0.000;0.004;0.000;-89.767;0.233;0.550;-3.176;-1.603;-9.722;0.905;-3.036;21.189;
1765;1.019;0.000;0.004;0.000;-89.767;0.233;0.550;-3.176;-1.603;-9.722;0.905;-3.036;21.189;
1766;1.019;0.000;0.004;0.000;-89.767;0.233;0.550;-3.176;-1.603;-9.722;0.905;-3.036;21.189;
1767;1.019;0.000;0.004;0.000;-89.767;0.233;0.550;-3.176;-1.603;-9.722;0.905;-3.036;21.189;
1768;1.019;0.000;0.004;0.000;-89.767;0.233;0.550;-3.176;-1.603;-9.722;0.905;-3.036;21.189;
1769;1.009;0.002;0.014;0.125;-89.187;0.804;0.473;-3.282;-1.588;-9.732;0.915;-3.052;21.189;
1770;1.009;0.002;0.014;0.125;-89.187;0.804;0.473;-3.282;-1.588;-9.732;0.915;-3.052;21.189;
1771;1.009;0.002;0.014;0.125;-89.187;0.804;0.473;-3.282;-1.588;-9.732;0.915;-3.052;21.189;
1772;1.009;0.002;0.014;0.125;-89.187;0.804;0.473;-3.282;-1.588;-9.732;0.915;-3.052;21.189;
1773;1.009;0.002;0.014;0.125;-89.187;0.804;0.473;-3.282;-1.588;-9.732;0.915;-3.052;21.189;
1774;1.009;0.002;0.014;0.125;-89.187;0.804;0.473;-3.282;-1.588;-9.732;0.915;-3.052;21.189;
1775;1.009;0.002;0.014;0.125;-89.187;0.804;0.473;-3.282;-1.588;-9.732;0.915;-3.052;21.189;
1776;1.009;0.002;0.014;0.125;-89.187;0.804;0.473;-3.282;-1.588;-9.732;0.915;-3.052;21.189;
1777;1.009;0.002;0.014;0.125;-89.187;0.804;0.473;-3.282;-1.588;-9.732;0.915;-3.052;21.189;
1778;1.009;0.002;0.014;0.125;-89.187;0.804;0.473;-3.282;-1.588;-9.732;0.915;-3.052;21.189;
1779;1.016;0.001;0.001;0.083;-89.901;0.055;0.550;-3.069;-1.542;-9.791;0.919;-3.068;21.330;
1780;1.016;0.001;0.001;0.083;-89.901;0.055;0.550;-3.069;-1.542;-9.791;0.919;-3.068;21.330;
1781;1.016;0.001;0.001;0.083;-89.901;0.055;0.550;-3.069;-1.542;-9.791;0.919;-3.068;21.330;
1782;1.016;0.001;0.001;0.083;-89.901;0.055;0.550;-3.069;-1.542;-9.791;0.919;-3.068;21.330;
1783;1.016;0.001;0.001;0.083;-89.901;0.055;0.550;-3.069;-1.542;-9.791;0.919;-3.068;21.330;
1784;1.016;0.001;0.001;0.083;-89.901;0.055;0.550;-3.069;-1.542;-9.791;0.919;-3.068;21.330;
1785;1.016;0.001;0.001;0.083;-89.901;0.055;0.550;-3.069;-1.542;-9.791;0.919;-3.068;21.330;
1786;1.016;0.001;0.001;0.083;-89.901;0.055;0.550;-3.069;-1.542;-9.791;0.919;-3.068;21.330;
1787;1.016;0.001;0.001;0.083;-89.901;0.055;0.550;-3.069;-1.542;-9.791;0.919;-3.068;21.330;
1788;1.016;-0.003;0.013;-0.151;-89.255;0.730;0.534;-3.298;-1.527;-9.795;0.914;-3.083;21.095;
1789;1.016;-0.003;0.013;-0.151;-89.255;0.730;0.534;-3.298;-1.527;-9.795;0.914;-3.083;21.095;
119.011;0.002;0.013;0.111;-89.245;0.747;0.580;-3.252;-1.740;-10.522;1.022;-3.441;21.236;
2008;1.011;0.002;0.013;0.111;-89.245;0.747;0.580;-3.252;-1.740;-10.522;1.022;-3.441;21.236;
2009;1.011;0.002;0.013;0.111;-89.245;0.747;0.580;-3.252;-1.740;-10.522;1.022;-3.441;21.236;
2010;1.011;0.002;0.013;0.111;-89.245;0.747;0.580;-3.252;-1.740;-10.522;1.022;-3.441;21.236;
2011;1.011;0.002;0.013;0.111;-89.245;0.747;0.580;-3.252;-1.740;-10.522;1.022;-3.441;21.236;
2012;1.011;0.002;0.013;0.111;-89.245;0.747;0.580;-3.252;-1.740;-10.522;1.022;-3.441;21.236;
2013;1.011;0.002;0.013;0.111;-89.245;0.747;0.580;-3.252;-1.740;-10.522;1.022;-3.441;21.236;
2014;1.011;0.002;0.013;0.111;-89.245;0.747;0.580;-3.252;-1.740;-10.522;1.022;-3.441;21.236;
2015;1.011;0.002;0.013;0.111;-89.245;0.747;0.580;-3.252;-1.740;-10.522;1.022;-3.441;21.236;
2016;1.011;0.002;0.013;0.111;-89.245;0.747;0.580;-3.252;-1.740;-10.522;1.022;-3.441;21.236;
2017;1.013;0.000;0.005;0.000;-89.738;0.262;0.641;-3.115;-1.405;-10.573;1.024;-3.456;21.236;
2018;1.013;0.000;0.005;0.000;-89.738;0.262;0.641;-3.115;-1.405;-10.573;1.024;-3.456;21.236;
2019;1.013;0.000;0.005;0.000;-89.738;0.262;0.641;-3.115;-1.405;-10.573;1.024;-3.456;21.236;
2020;1.013;0.000;0.005;0.000;-89.738;0.262;0.641;-3.115;-1.405;-10.573;1.024;-3.456;21.236;
2021;1.013;0.000;0.005;0.000;-89.738;0.262;0.641;-3.115;-1.405;-10.573;1.024;-3.456;21.236;
2022;1.013;0.000;0.005;0.000;-89.738;0.262;0.641;-3.115;-1.405;-10.573;1.024;-3.456;21.236;
2023;1.013;0.000;0.005;0.000;-89.738;0.262;0.641;-3.115;-1.405;-10.573;1.024;-3.456;21.236;
2024;1.013;0.000;0.005;0.000;-89.738;0.262;0.641;-3.115;-1.405;-10.573;1.024;-3.456;21.236;
2025;1.013;0.000;0.005;0.000;-89.738;0.262;0.641;-3.115;-1.405;-10.573;1.024;-3.456;21.236;
2026;1.013;-0.003;0.019;-0.166;-88.924;1.063;0.443;-3.374;-1.466;-10.571;1.021;-3.470;21.236;
2027;1.013;-0.003;0.019;-0.166;-88.924;1.063;0.443;-3.374;-1.466;-10.571;1.021;-3.470;21.236;
2028;1.013;-0.003;0.019;-0.166;-88.924;1.063;0.443;-3.374;-1.466;-10.571;1.021;-3.470;21.236;
2029;1.013;-0.003;0.019;-0.166;-88.924;1.063;0.443;-3.374;-1.466;-10.571;1.021;-3.470;21.236;
2030;1.013;-0.003;0.019;-0.166;-88.924;1.063;0.443;-3.374;-1.466;-10.571;1.021;-3.470;21.236;
2031;1.013;-0.003;0.019;-0.166;-88.924;1.063;0.443;-3.374;-1.466;-10.571;1.021;-3.470;21.236;
2032;1.013;-0.003;0.019;-0.166;-88.924;1.063;0.443;-3.374;-1.466;-10.571;1.021;-3.470;21.236;
2033;1.013;-0.003;0.019;-0.166;-88.924;1.063;0.443;-3.374;-1.466;-10.571;1.021;-3.470;21.236;
2034;1.013;-0.003;0.019;-0.166;-88.924;1.063;0.443;-3.374;-1.466;-10.571;1.021;-3.470;21.236;
2035;1.013;-0.003;0.019;-0.166;-88.924;1.063;0.443;-3.374;-1.466;-10.571;1.021;-3.470;21.236;
2036;1.012;-0.008;0.018;-0.442;-88.911;0.995;0.412;-3.160;-1.603;-10.603;1.015;-3.487;21.236;
2037;1.012;-0.008;0.018;-0.442;-88.911;0.995;0.412;-3.160;-1.603;-10.603;1.015;-3.487;21.236;
2038;1.012;-0.008;0.018;-0.442;-88.911;0.995;0.412;-3.160;-1.603;-10.603;1.015;-3.487;21.236;
2039;1.012;-0.008;0.018;-0.442;-88.911;0.995;0.412;-3.160;-1.603;-10.603;1.015;-3.487;21.236;
2040;1.012;-0.008;0.018;-0.442;-88.911;0.995;0.412;-3.160;-1.603;-10.603;1.015;-3.487;21.236;
2041;1.012;-0.008;0.018;-0.442;-88.911;0.995;0.412;-3.160;-1.603;-10.603;1.015;-3.487;21.236;
2042;1.012;-0.008;0.018;-0.442;-88.911;0.995;0.412;-3.160;-1.603;-10.603;1.015;-3.487;21.236;
2043;1.012;-0.008;0.018;-0.442;-88.911;0.995;0.412;-3.160;-1.603;-10.603;1.015;-3.487;21.236;
2044;1.012;-0.008;0.018;-0.442;-88.911;0.995;0.412;-3.160;-1.603;-10.603;1.015;-3.487;21.236;
2045;1.012;0.004;0.024;0.235;-88.612;1.368;0.427;-3.267;-1.420;-10.621;1.046;-3.500;21.236;
2046;1.012;0.004;0.024;0.235;-88.612;1.368;0.427;-3.267;-1.420;-10.621;1.046;-3.500;21.236;
2047;1.012;0.004;0.024;0.235;-88.612;1.368;0.427;-3.267;-1.420;-10.621;1.046;-3.500;21.236;
2048;1.012;0.004;0.024;0.235;-88.612;1.368;0.427;-3.267;-1.420;-10.621;1.046;-3.500;21.236;
2049;1.012;0.004;0.024;0.235;-88.612;1.368;0.427;-3.267;-1.420;-10.621;1.046;-3.500;21.236;
2050;1.012;0.004;0.024;0.235;-88.612;1.368;0.427;-3.267;-1.420;-10.621;1.046;-3.500;21.236;
2051;1.012;0.004;0.024;0.235;-88.612;1.368;0.427;-3.267;-1.420;-10.621;1.046;-3.500;21.236;
2052;1.012;0.004;0.024;0.235;-88.612;1.368;0.427;-3.267;-1.420;-10.621;1.046;-3.500;21.236;
2053;1.012;0.004;0.024;0.235;-88.612;1.368;0.427;-3.267;-1.420;-10.621;1.046;-3.500;21.236;
2054;1.012;0.004;0.024;0.235;-88.612;1.368;0.427;-3.267;-1.420;-10.621;1.046;-3.500;21.236;
2055;1.015;-0.002;0.010;-0.138;-89.432;0.551;0.519;-3.344;-1.634;-10.687;1.036;-3.518;21.142;
2056;1.015;-0.002;0.010;-0.138;-89.432;0.551;0.519;-3.344;-1.634;-10.687;1.036;-3.518;21.142;
2057;1.015;-0.002;0.010;-0.138;-89.432;0.551;0.519;-3.344;-1.634;-10.687;1.036;-3.518;21.142;
2058;1.015;-0.002;0.010;-0.138;-89.432;0.551;0.519;-3.344;-1.634;-10.687;1.036;-3.518;21.142;
2059;1.015;-0.002;0.010;-0.138;-89.432;0.551;0.519;-3.344;-1.634;-10.687;1.036;-3.518;21.142;
2060;1.015;-0.002;0.010;-0.138;-89.432;0.551;0.519;-3.344;-1.634;-10.687;1.036;-3.518;21.142;
2061;1.015;-0.002;0.010;-0.138;-89.432;0.551;0.519;-3.344;-1.634;-10.687;1.036;-3.518;21.142;
2062;1.015;-0.002;0.010;-0.138;-89.432;0.551;0.519;-3.344;-1.634;-10.687;1.03.;695;1.300;0.580;-3.328;-1.634;-11.438;1.147;-3.912;21.189;
2300;1.011;-0.002;0.023;-0.111;-88.695;1.300;0.580;-3.328;-1.634;-11.438;1.147;-3.912;21.189;
2301;1.021;-0.004;0.008;-0.233;-89.491;0.452;0.687;-3.252;-1.634;-11.503;1.149;-3.929;21.189;
2302;1.021;-0.004;0.008;-0.233;-89.491;0.452;0.687;-3.252;-1.634;-11.503;1.149;-3.929;21.189;
2303;1.021;-0.004;0.008;-0.233;-89.491;0.452;0.687;-3.252;-1.634;-11.503;1.149;-3.929;21.189;
2304;1.021;-0.004;0.008;-0.233;-89.491;0.452;0.687;-3.252;-1.634;-11.503;1.149;-3.929;21.189;
2305;1.021;-0.004;0.008;-0.233;-89.491;0.452;0.687;-3.252;-1.634;-11.503;1.149;-3.929;21.189;
2306;1.021;-0.004;0.008;-0.233;-89.491;0.452;0.687;-3.252;-1.634;-11.503;1.149;-3.929;21.189;
2307;1.021;-0.004;0.008;-0.233;-89.491;0.452;0.687;-3.252;-1.634;-11.503;1.149;-3.929;21.189;
2308;1.021;-0.004;0.008;-0.233;-89.491;0.452;0.687;-3.252;-1.634;-11.503;1.149;-3.929;21.189;
2309;1.021;-0.004;0.008;-0.233;-89.491;0.452;0.687;-3.252;-1.634;-11.503;1.149;-3.929;21.189;
2310;1.013;0.003;0.014;0.152;-89.212;0.773;0.397;-3.313;-1.542;-11.523;1.168;-3.944;21.236;
2311;1.013;0.003;0.014;0.152;-89.212;0.773;0.397;-3.313;-1.542;-11.523;1.168;-3.944;21.236;
2312;1.013;0.003;0.014;0.152;-89.212;0.773;0.397;-3.313;-1.542;-11.523;1.168;-3.944;21.236;
2313;1.013;0.003;0.014;0.152;-89.212;0.773;0.397;-3.313;-1.542;-11.523;1.168;-3.944;21.236;
2314;1.013;0.003;0.014;0.152;-89.212;0.773;0.397;-3.313;-1.542;-11.523;1.168;-3.944;21.236;
2315;1.013;0.003;0.014;0.152;-89.212;0.773;0.397;-3.313;-1.542;-11.523;1.168;-3.944;21.236;
2316;1.013;0.003;0.014;0.152;-89.212;0.773;0.397;-3.313;-1.542;-11.523;1.168;-3.944;21.236;
2317;1.013;0.003;0.014;0.152;-89.212;0.773;0.397;-3.313;-1.542;-11.523;1.168;-3.944;21.236;
2318;1.013;0.003;0.014;0.152;-89.212;0.773;0.397;-3.313;-1.542;-11.523;1.168;-3.944;21.236;
2319;1.017;-0.004;0.014;-0.234;-89.195;0.770;0.412;-3.115;-1.634;-11.550;1.156;-3.960;21.283;
2320;1.017;-0.004;0.014;-0.234;-89.195;0.770;0.412;-3.115;-1.634;-11.550;1.156;-3.960;21.283;
2321;1.017;-0.004;0.014;-0.234;-89.195;0.770;0.412;-3.115;-1.634;-11.550;1.156;-3.960;21.283;
2322;1.017;-0.004;0.014;-0.234;-89.195;0.770;0.412;-3.115;-1.634;-11.550;1.156;-3.960;21.283;
2323;1.017;-0.004;0.014;-0.234;-89.195;0.770;0.412;-3.115;-1.634;-11.550;1.156;-3.960;21.283;
2324;1.017;-0.004;0.014;-0.234;-89.195;0.770;0.412;-3.115;-1.634;-11.550;1.156;-3.960;21.283;
2325;1.017;-0.004;0.014;-0.234;-89.195;0.770;0.412;-3.115;-1.634;-11.550;1.156;-3.960;21.283;
2326;1.017;-0.004;0.014;-0.234;-89.195;0.770;0.412;-3.115;-1.634;-11.550;1.156;-3.960;21.283;
2327;1.017;-0.004;0.014;-0.234;-89.195;0.770;0.412;-3.115;-1.634;-11.550;1.156;-3.960;21.283;
2328;1.017;-0.004;0.014;-0.234;-89.195;0.770;0.412;-3.115;-1.634;-11.550;1.156;-3.960;21.283;
2329;1.016;-0.001;0.014;-0.041;-89.214;0.785;0.214;-3.160;-1.573;-11.583;1.166;-3.977;21.095;
2330;1.016;-0.001;0.014;-0.041;-89.214;0.785;0.214;-3.160;-1.573;-11.583;1.166;-3.977;21.095;
2331;1.016;-0.001;0.014;-0.041;-89.214;0.785;0.214;-3.160;-1.573;-11.583;1.166;-3.977;21.095;
2332;1.016;-0.001;0.014;-0.041;-89.214;0.785;0.214;-3.160;-1.573;-11.583;1.166;-3.977;21.095;
2333;1.016;-0.001;0.014;-0.041;-89.214;0.785;0.214;-3.160;-1.573;-11.583;1.166;-3.977;21.095;
2334;1.016;-0.001;0.014;-0.041;-89.214;0.785;0.214;-3.160;-1.573;-11.583;1.166;-3.977;21.095;
2335;1.016;-0.001;0.014;-0.041;-89.214;0.785;0.214;-3.160;-1.573;-11.583;1.166;-3.977;21.095;
2336;1.016;-0.001;0.014;-0.041;-89.214;0.785;0.214;-3.160;-1.573;-11.583;1.166;-3.977;21.095;
2337;1.016;-0.001;0.014;-0.041;-89.214;0.785;0.214;-3.160;-1.573;-11.583;1.166;-3.977;21.095;
2338;1.012;0.000;0.015;0.014;-89.129;0.871;0.687;-3.038;-1.405;-11.608;1.175;-3.990;21.236;
2339;1.012;0.000;0.015;0.014;-89.129;0.871;0.687;-3.038;-1.405;-11.608;1.175;-3.990;21.236;
2340;1.012;0.000;0.015;0.014;-89.129;0.871;0.687;-3.038;-1.405;-11.608;1.175;-3.990;21.236;
2341;1.012;0.000;0.015;0.014;-89.129;0.871;0.687;-3.038;-1.405;-11.608;1.175;-3.990;21.236;
2342;1.012;0.000;0.015;0.014;-89.129;0.871;0.687;-3.038;-1.405;-11.608;1.175;-3.990;21.236;
2343;1.012;0.000;0.015;0.014;-89.129;0.871;0.687;-3.038;-1.405;-11.608;1.175;-3.990;21.236;
2344;1.012;0.000;0.015;0.014;-89.129;0.871;0.687;-3.038;-1.405;-11.608;1.175;-3.990;21.236;
2345;1.012;0.000;0.015;0.014;-89.129;0.871;0.687;-3.038;-1.405;-11.608;1.175;-3.990;21.236;
2346;1.012;0.000;0.015;0.014;-89.129;0.871;0.687;-3.038;-1.405;-11.608;1.175;-3.990;21.236;
2347;1.012;0.000;0.015;0.014;-89.129;0.871;0.687;-3.038;-1.405;-11.608;1.175;-3.990;21.236;
2348;1.019;-0.001;0.022;-0.082;-88.734;1.263;0.458;-3.344;-1.679;-11.626;1.175;-4.008;21.283;
2349;1.019;-0.001;0.022;-0.082;-88.734;1.263;0.458;-3.344;-1.679;-11.626;1.175;-4.008;21.283;
2350;1.019;-0.001;0.022;-0.082;-88.734;1.263;0.458;-3.344;-1.679;-11.626;1.175;-4.008;21.283;
2351;1.019;-0.001;0.022;-0.082;-88.734;1.263;0.458;-3.344;-1.679;-11.626;1.175;-4.008;21.283;
2352;1.019;-0.001;0.022;-0.082;-88.734;1.263;0.458;-3.344;-1.679;-11.626;1.175;-4.008;21.283;
2353;1.019;-0.001;0.022;-0.082;-88.734;1.263;0.458;-3.344;-1.679;-11.626;1.175;-4.008;21.283;
2354;1.019;-0.001;0.022;-0.082;-88.734;1.263;0.458;-3.344;-1.679;-1106.344;-88.858;1.088;0.672;-3.130;-1.511;-12.448;1.304;-4.418;21.189;
2595;1.015;0.006;0.019;0.344;-88.858;1.088;0.672;-3.130;-0..006;0.019;0.344;-88.858;1.088;0.672;-3.130;-1.511;-12.448;1.304;-4.418;21.189;
2597;1.015;0.006;0.019;0.344;-88.858;1.088;0.672;-3.130;-1.511;-12.448;1.304;-4.418;21.189;
2598;1.015;0.006;0.019;0.344;-88.858;1.088;0.672;-3.130;-1.511;-12.448;1.304;-4.418;21.189;
2599;1.015;0.006;0.019;0.344;-88.858;1.088;0.672;-3.130;-1.511;-12.448;1.304;-4.418;21.189;
2600;1.015;0.006;0.019;0.344;-88.858;1.088;0.672;-3.130;-1.511;-12.448;1.304;-4.418;21.189;
2601;1.015;0.006;0.019;0.344;-88.858;1.088;0.672;-3.130;-1.511;-12.448;1.304;-4.4.8015;0.006;0.019;0.344;-88.858;1.088;0.672;-3.130;-1.511;-12.448;1.304;-4.418;21.189;
2603;1.011;-0.001;0.022;-0.055;-88.754;1.245;0.366;-3.221;-1.359;-12.473;1.291;-4.430;21.189;
2604;1.011;-0.001;0.022;-0.055;-88.754;1.245;0.366;-3.221;-1.359;-12.473;1.291;-4.430;21.189;
2605;1.011;-0.001;0.022;-0.055;-88.754;1.245;0.366;-3.221;-1.359;-12.473;1.291;-4.430;21.189;
2606;1.011;-0.001;0.022;-0.055;-88.754;1.245;0.366;-3.221;-1.359;-12.473;1.291;-4.430;21.189;
2607;1.011;-0.001;0.022;-0.055;-88.754;1.245;0.366;-3.221;-1.359;-12.473;1.291;-4.430;21.189;
2608;1.011;-0.001;0.022;-0.055;-88.754;1.245;0.366;-3.221;-1.359;-12.473;1.291;-4.430;21.189;
2609;1.011;-0.001;0.022;-0.055;-88.754;1.245;0.366;-3.221;-1.359;-12.473;1.291;-4.430;21.189;
2610;1.011;-0.001;0.022;-0.055;-88.754;1.245;0.366;-3.221;-1.359;-12.473;1.291;-4.430;21.189;
2611;1.011;-0.001;0.022;-0.055;-88.754;1.245;0.366;-3.221;-1.359;-12.473;1.291;-4.430;21.189;
2612;1.011;-0.001;0.022;-0.055;-88.754;1.245;0.366;-3.221;-1.359;-12.473;1.291;-4.430;21.189;
2613;1.012;0.003;0.010;0.152;-89.440;0.539;0.473;-3.344;-1.420;-12.535;1.304;-4.446;21.189;
2614;1.012;0.003;0.010;0.152;-89.440;0.539;0.473;-3.344;-1.420;-12.535;1.304;-4.446;21.189;
2615;1.012;0.003;0.010;0.152;-89.440;0.539;0.473;-3.344;-1.420;-12.535;1.304;-4.446;21.189;
2616;1.012;0.003;0.010;0.152;-89.440;0.539;0.473;-3.344;-1.420;-12.535;1.304;-4.446;21.189;
2617;1.012;0.003;0.010;0.152;-89.440;0.539;0.473;-3.344;-1.420;-12.535;1.304;-4.446;21.189;
2618;1.012;0.003;0.010;0.152;-89.440;0.539;0.473;-3.344;-1.420;-12.535;1.304;-4.446;21.189;
2619;1.012;0.003;0.010;0.152;-89.440;0.539;0.473;-3.344;-1.420;-12.535;1.304;-4.446;21.189;
2620;1.012;0.003;0.010;0.152;-89.440;0.539;0.473;-3.344;-1.420;-12.535;1.304;-4.446;21.189;
2621;1.012;0.003;0.010;0.152;-89.440;0.539;0.473;-3.344;-1.420;-12.535;1.304;-4.446;21.189;
2622;1.019;-0.004;0.011;-0.220;-89.358;0.604;0.336;-3.206;-1.511;-12.561;1.293;-4.460;21.283;
2623;1.019;-0.004;0.011;-0.220;-89.358;0.604;0.336;-3.206;-1.511;-12.561;1.293;-4.460;21.283;
2624;1.019;-0.004;0.011;-0.220;-89.358;0.604;0.336;-3.206;-1.511;-12.561;1.293;-4.460;21.283;
2625;1.019;-0.004;0.011;-0.220;-89.358;0.604;0.336;-3.206;-1.511;-12.561;1.293;-4.460;21.283;
2626;1.019;-0.004;0.011;-0.220;-89.358;0.604;0.336;-3.206;-1.511;-12.561;1.293;-4.460;21.283;
2627;1.019;-0.004;0.011;-0.220;-89.358;0.604;0.336;-3.206;-1.511;-12.561;1.293;-4.460;21.283;
2628;1.019;-0.004;0.011;-0.220;-89.358;0.604;0.336;-3.206;-1.511;-12.561;1.293;-4.460;21.283;
2629;1.019;-0.004;0.011;-0.220;-89.358;0.604;0.336;-3.206;-1.511;-12.561;1.293;-4.460;21.283;
2630;1.019;-0.004;0.011;-0.220;-89.358;0.604;0.336;-3.206;-1.511;-12.561;1.293;-4.460;21.283;
2631;1.019;-0.004;0.011;-0.220;-89.358;0.604;0.336;-3.206;-1.511;-12.561;1.293;-4.460;21.283;
2632;1.012;-0.008;0.015;-0.442;-89.024;0.870;0.580;-3.282;-1.557;-12.581;1.290;-4.477;21.283;
2633;1.012;-0.008;0.015;-0.442;-89.024;0.870;0.580;-3.282;-1.557;-12.581;1.290;-4.477;21.283;
2634;1.012;-0.008;0.015;-0.442;-89.024;0.870;0.580;-3.282;-1.557;-12.581;1.290;-4.477;21.283;
2635;1.012;-0.008;0.015;-0.442;-89.024;0.870;0.580;-3.282;-1.557;-12.581;1.290;-4.477;21.283;
2636;1.012;-0.008;0.015;-0.442;-89.024;0.870;0.580;-3.282;-1.557;-12.581;1.290;-4.477;21.283;
2637;1.012;-0.008;0.015;-0.442;-89.024;0.870;0.580;-3.282;-1.557;-12.581;1.290;-4.477;21.283;
2638;1.012;-0.008;0.015;-0.442;-89.024;0.870;0.580;-3.282;-1.557;-12.581;1.290;-4.477;21.283;
2639;1.012;-0.008;0.015;-0.442;-89.024;0.870;0.580;-3.282;-1.557;-12.581;1.290;-4.477;21.283;
2640;1.012;-0.008;0.015;-0.442;-89.024;0.870;0.580;-3.282;-1.557;-12.581;1.290;-4.477;21.283;
2641;1.015;-0.003;0.014;-0.165;-89.184;0.800;0.534;-3.176;-1.649;-12.617;1.306;-4.492;21.189;
2642;1.015;-0.003;0.014;-0.165;-89.184;0.800;0.534;-3.176;-1.649;-12.617;1.306;-4.492;21.189;
2643;1.015;-0.003;0.014;-0.165;-89.184;0.800;0.534;-3.176;-1.649;-12.617;1.306;-4.492;21.189;
2644;1.015;-0.003;0.014;-0.165;-89.184;0.800;0.534;-3.176;-1.649;-12.617;1.306;-4.492;21.189;
2645;1.015;-0.003;0.014;-0.165;-89.184;0.800;0.534;-3.176;-1.649;-12.617;1.306;-4.492;21.189;
2646;1.015;-0.003;0.014;-0.165;-89.184;0.800;0.534;-3.176;-1.649;-12.617;1.306;-4.492;21.189;
2647;1.015;-0.003;0.014;-0.165;-89.184;0.800;0.534;-3.176;-1.649;-12.617;1.306;-4.492;21.189;
2648;1.015;-0.003;0.014;-0.165;-89.184;0.800;0.534;-3.176;-1.649;-12.617;1.306;-4.492;21.189;
2649;1.015;-0.003;0.014;-0.165;-89.184;0.800;0.534;-3.176;-1.649;-12.617;1.306;-4.492;21.189;
2650;1.013;0.001;0.007;0.055;-89.582;0.414;0.504;-3.160;-1.649;-12.662;1.319;-4.508;21.283;
2651;1.013;0.001;0.007;0.055;-89.;8-0.002;0.006;-0.096;-89.657;0.330;0.412;-3.374;-1.405;-13.390;1.420;-4.857;21.189;
2877;1.019;-0.002;0.006;-0.096;-89.657;0.330;0.412;-3.374;-1.405;-13.390;1.420;-4.857;21.189;
2878;1.016;-0.001;0.011;-0.069;-89.376;0.620;0.489;-3.328;-1.557;-13.409;1.425;-4.872;21.189;
2879;1.016;-0.001;0.011;-0.069;-89.376;0.620;0.489;-3.328;-1.557;-13.409;1.425;-4.872;21.189;
2880;1.016;-0.001;0.011;-0.069;-89.376;0.620;0.489;-3.328;-1.557;-13.409;1.425;-4.872;21.189;
2881;1.016;-0.001;0.011;-0.069;-89.376;0.620;0.489;-3.328;-1.557;-13.409;1.425;-4.872;21.189;
2882;1.016;-0.001;0.011;-0.069;-89.376;0.620;0.489;-3.328;-1.557;-13.409;1.425;-4.872;21.189;
2883;1.016;-0.001;0.011;-0.069;-89.376;0.620;0.489;-3.328;-1.557;-13.409;1.425;-4.872;21.189;
2884;1.016;-0.001;0.011;-0.069;-89.376;0.620;0.489;-3.328;-1.557;-13.409;1.425;-4.872;21.189;
2885;1.016;-0.001;0.011;-0.069;-89.376;0.620;0.489;-3.328;-1.557;-13.409;1.425;-4.872;21.189;
2886;1.016;-0.001;0.011;-0.069;-89.376;0.620;0.489;-3.328;-1.557;-13.409;1.425;-4.872;21.189;
2887;1.016;-0.001;0.011;-0.069;-89.376;0.620;0.489;-3.328;-1.557;-13.409;1.425;-4.872;21.189;
2888;1.013;0.000;0.017;0.028;-89.033;0.967;0.382;-3.237;-1.389;-13.429;1.433;-4.887;21.189;
2889;1.013;0.000;0.017;0.028;-89.033;0.967;0.382;-3.237;-1.389;-13.429;1.433;-4.887;21.189;
2890;1.013;0.000;0.017;0.028;-89.033;0.967;0.382;-3.237;-1.389;-13.429;1.433;-4.887;21.189;
2891;1.013;0.000;0.017;0.028;-89.033;0.967;0.382;-3.237;-1.389;-13.429;1.433;-4.887;21.189;
2892;1.013;0.000;0.017;0.028;-89.033;0.967;0.382;-3.237;-1.389;-13.429;1.433;-4.887;21.189;
2893;1.013;0.000;0.017;0.028;-89.033;0.967;0.382;-3.237;-1.389;-13.429;1.433;-4.887;21.189;
2894;1.013;0.000;0.017;0.028;-89.033;0.967;0.382;-3.237;-1.389;-13.429;1.433;-4.887;21.189;
2895;1.013;0.000;0.017;0.028;-89.033;0.967;0.382;-3.237;-1.389;-13.429;1.433;-4.887;21.189;
2896;1.013;0.000;0.017;0.028;-89.033;0.967;0.382;-3.237;-1.389;-13.429;1.433;-4.887;21.189;
2897;1.015;0.003;0.017;0.165;-89.035;0.951;0.397;-3.298;-1.573;-13.459;1.442;-4.902;21.283;
2898;1.015;0.003;0.017;0.165;-89.035;0.951;0.397;-3.298;-1.573;-13.459;1.442;-4.902;21.283;
2899;1.015;0.003;0.017;0.165;-89.035;0.951;0.397;-3.298;-1.573;-13.459;1.442;-4.902;21.283;
2900;1.015;0.003;0.017;0.165;-89.035;0.951;0.397;-3.298;-1.573;-13.459;1.442;-4.902;21.283;
2901;1.015;0.003;0.017;0.165;-89.035;0.951;0.397;-3.298;-1.573;-13.459;1.442;-4.902;21.283;
2902;1.015;0.003;0.017;0.165;-89.035;0.951;0.397;-3.298;-1.573;-13.459;1.442;-4.902;21.283;
2903;1.015;0.003;0.017;0.165;-89.035;0.951;0.397;-3.298;-1.573;-13.459;1.442;-4.902;21.283;
2904;1.015;0.003;0.017;0.165;-89.035;0.951;0.397;-3.298;-1.573;-13.459;1.442;-4.902;21.283;
2905;1.015;0.003;0.017;0.165;-89.035;0.951;0.397;-3.298;-1.573;-13.459;1.442;-4.902;21.283;
2906;1.015;0.003;0.017;0.165;-89.035;0.951;0.397;-3.298;-1.573;-13.459;1.442;-4.902;21.283;
2907;1.023;0.001;0.008;0.041;-89.574;0.424;0.504;-3.389;-1.557;-13.514;1.442;-4.918;21.236;
2908;1.023;0.001;0.008;0.041;-89.574;0.424;0.504;-3.389;-1.557;-13.514;1.442;-4.918;21.236;
2909;1.023;0.001;0.008;0.041;-89.574;0.424;0.504;-3.389;-1.557;-13.514;1.442;-4.918;21.236;
2910;1.023;0.001;0.008;0.041;-89.574;0.424;0.504;-3.389;-1.557;-13.514;1.442;-4.918;21.236;
2911;1.023;0.001;0.008;0.041;-89.574;0.424;0.504;-3.389;-1.557;-13.514;1.442;-4.918;21.236;
2912;1.023;0.001;0.008;0.041;-89.574;0.424;0.504;-3.389;-1.557;-13.514;1.442;-4.918;21.236;
2913;1.023;0.001;0.008;0.041;-89.574;0.424;0.504;-3.389;-1.557;-13.514;1.442;-4.918;21.236;
2914;1.023;0.001;0.008;0.041;-89.574;0.424;0.504;-3.389;-1.557;-13.514;1.442;-4.918;21.236;
2915;1.023;0.001;0.008;0.041;-89.574;0.424;0.504;-3.389;-1.557;-13.514;1.442;-4.918;21.236;
2916;1.015;0.001;0.022;0.055;-88.745;1.254;0.412;-3.298;-1.496;-13.511;1.447;-4.932;21.236;
2917;1.015;0.001;0.022;0.055;-88.745;1.254;0.412;-3.298;-1.496;-13.511;1.447;-4.932;21.236;
2918;1.015;0.001;0.022;0.055;-88.745;1.254;0.412;-3.298;-1.496;-13.511;1.447;-4.932;21.236;
2919;1.015;0.001;0.022;0.055;-88.745;1.254;0.412;-3.298;-1.496;-13.511;1.447;-4.932;21.236;
2920;1.015;0.001;0.022;0.055;-88.745;1.254;0.412;-3.298;-1.496;-13.511;1.447;-4.932;21.236;
2921;1.015;0.001;0.022;0.055;-88.745;1.254;0.412;-3.298;-1.496;-13.511;1.447;-4.932;21.236;
2922;1.015;0.001;0.022;0.055;-88.745;1.254;0.412;-3.298;-1.496;-13.511;1.447;-4.932;21.236;
2923;1.015;0.001;0.022;0.055;-88.745;1.254;0.412;-3.298;-1.496;-13.511;1.447;-4.932;21.236;
2924;1.015;0.001;0.022;0.055;-88.745;1.254;0.412;-3.298;-1.496;-13.511;1.447;-4.932;21.236;
2925;1.015;0.001;0.022;0.055;-88.745;1.254;0.412;-3.298;-1.496;-13.511;1.447;-4.932;21.236;
2926;1.010;0.001;0.019;0.055;-88.905;1.093;0.626;-3.328;-1.771;-13.551;1.453;-4.951;21.142;
2927;1.010;0.001;0.019;0.055;-88.905;1.093;0.626;-3.328;-1.771;-13.551;1.453;-4.951;21.142;
2928;1.010;0.001;0.019;0.055;-88.905;1.093;0.626;-3.328;-1.771;-13.551;1.453;-4.951;21.142;
2929;1.010;0.001;0.019;0.055;-88.905;1.093;0.626;-3.328;-1.771;-13.551;1.453;-4.951;21.142;
2930;1.010;0.001;0.0100;-89.324;0.676;0.473;-3.221;-1.664;-14.296;1.564;-5.307;21.330;
3150;1.014;0.000;0.012;0.000;-81.4;0.000;0.012;0.000;-89.324;0.676;0.473;-3.221;-1.664;-14.296;1.564;-5.307;21.330;
3152;1.014;0.000;0.012;0.000;-89.324;0.676;0.473;-3.221;-1.664;-14.296;1.564;-5.307;21.330;
3153;1.015;0.001;0.002;0.041;-89.869;0.124;0.580;-3.145;-1.511;-14.346;1.571;-5.321;21.236;
3154;1.015;0.001;0.002;0.041;-89.869;0.124;0.580;-3.145;-1.511;-14.346;1.571;-5.321;21.236;
3155;1.015;0.001;0.002;0.041;-89.869;0.124;0.580;-3.145;-1.511;-14.346;1.571;-5.321;21.236;
3156;1.015;0.001;0.002;0.041;-89.869;0.124;0.580;-3.145;-1.511;-14.346;1.571;-5.321;21.236;
3157;1.015;0.001;0.002;0.041;-89.869;0.124;0.580;-3.145;-1.511;-14.346;1.571;-5.321;21.236;
3158;1.015;0.001;0.002;0.041;-89.869;0.124;0.580;-3.145;-1.511;-14.346;1.571;-5.321;21.236;
3159;1.015;0.001;0.002;0.041;-89.869;0.124;0.580;-3.145;-1.511;-14.346;1.571;-5.321;21.236;
3160;1.015;0.001;0.002;0.041;-89.869;0.124;0.580;-3.145;-1.511;-14.346;1.571;-5.321;21.236;
3161;1.015;0.001;0.002;0.041;-89.869;0.124;0.580;-3.145;-1.511;-14.346;1.571;-5.321;21.236;
3162;1.015;0.001;0.002;0.041;-89.869;0.124;0.580;-3.145;-1.511;-14.346;1.571;-5.321;21.236;
3163;1.018;0.000;0.015;0.000;-89.134;0.866;0.550;-3.359;-1.527;-14.351;1.575;-5.337;21.236;
3164;1.018;0.000;0.015;0.000;-89.134;0.866;0.550;-3.359;-1.527;-14.351;1.575;-5.337;21.236;
3165;1.018;0.000;0.015;0.000;-89.134;0.866;0.550;-3.359;-1.527;-14.351;1.575;-5.337;21.236;
3166;1.018;0.000;0.015;0.000;-89.134;0.866;0.550;-3.359;-1.527;-14.351;1.575;-5.337;21.236;
3167;1.018;0.000;0.015;0.000;-89.134;0.866;0.550;-3.359;-1.527;-14.351;1.575;-5.337;21.236;
3168;1.018;0.000;0.015;0.000;-89.134;0.866;0.550;-3.359;-1.527;-14.351;1.575;-5.337;21.236;
3169;1.018;0.000;0.015;0.000;-89.134;0.866;0.550;-3.359;-1.527;-14.351;1.575;-5.337;21.236;
3170;1.018;0.000;0.015;0.000;-89.134;0.866;0.550;-3.359;-1.527;-14.351;1.575;-5.337;21.236;
3171;1.018;0.000;0.015;0.000;-89.134;0.866;0.550;-3.359;-1.527;-14.351;1.575;-5.337;21.236;
3172;1.018;0.000;0.015;0.000;-89.134;0.866;0.550;-3.359;-1.527;-14.351;1.575;-5.337;21.236;
3173;1.010;0.005;0.012;0.263;-89.259;0.693;0.519;-3.252;-1.664;-14.388;1.590;-5.354;21.236;
3174;1.010;0.005;0.012;0.263;-89.259;0.693;0.519;-3.252;-1.664;-14.388;1.590;-5.354;21.236;
3175;1.010;0.005;0.012;0.263;-89.259;0.693;0.519;-3.252;-1.664;-14.388;1.590;-5.354;21.236;
3176;1.010;0.005;0.012;0.263;-89.259;0.693;0.519;-3.252;-1.664;-14.388;1.590;-5.354;21.236;
3177;1.010;0.005;0.012;0.263;-89.259;0.693;0.519;-3.252;-1.664;-14.388;1.590;-5.354;21.236;
3178;1.010;0.005;0.012;0.263;-89.259;0.693;0.519;-3.252;-1.664;-14.388;1.590;-5.354;21.236;
3179;1.010;0.005;0.012;0.263;-89.259;0.693;0.519;-3.252;-1.664;-14.388;1.590;-5.354;21.236;
3180;1.010;0.005;0.012;0.263;-89.259;0.693;0.519;-3.252;-1.664;-14.388;1.590;-5.354;21.236;
3181;1.010;0.005;0.012;0.263;-89.259;0.693;0.519;-3.252;-1.664;-14.388;1.590;-5.354;21.236;
3182;1.019;0.003;0.013;0.165;-89.227;0.755;0.427;-3.496;-1.557;-14.419;1.590;-5.369;21.189;
3183;1.019;0.003;0.013;0.165;-89.227;0.755;0.427;-3.496;-1.557;-14.419;1.590;-5.369;21.189;
3184;1.019;0.003;0.013;0.165;-89.227;0.755;0.427;-3.496;-1.557;-14.419;1.590;-5.369;21.189;
3185;1.019;0.003;0.013;0.165;-89.227;0.755;0.427;-3.496;-1.557;-14.419;1.590;-5.369;21.189;
3186;1.019;0.003;0.013;0.165;-89.227;0.755;0.427;-3.496;-1.557;-14.419;1.590;-5.369;21.189;
3187;1.019;0.003;0.013;0.165;-89.227;0.755;0.427;-3.496;-1.557;-14.419;1.590;-5.369;21.189;
3188;1.019;0.003;0.013;0.165;-89.227;0.755;0.427;-3.496;-1.557;-14.419;1.590;-5.369;21.189;
3189;1.019;0.003;0.013;0.165;-89.227;0.755;0.427;-3.496;-1.557;-14.419;1.590;-5.369;21.189;
3190;1.019;0.003;0.013;0.165;-89.227;0.755;0.427;-3.496;-1.557;-14.419;1.590;-5.369;21.189;
3191;1.019;0.003;0.013;0.165;-89.227;0.755;0.427;-3.496;-1.557;-14.419;1.590;-5.369;21.189;
3192;1.011;-0.002;0.002;-0.138;-89.823;0.111;0.504;-3.328;-1.664;-14.476;1.583;-5.386;21.283;
3193;1.011;-0.002;0.002;-0.138;-89.823;0.111;0.504;-3.328;-1.664;-14.476;1.583;-5.386;21.283;
3194;1.011;-0.002;0.002;-0.138;-89.823;0.111;0.504;-3.328;-1.664;-14.476;1.583;-5.386;21.283;
3195;1.011;-0.002;0.002;-0.138;-89.823;0.111;0.504;-3.328;-1.664;-14.476;1.583;-5.386;21.283;
3196;1.011;-0.002;0.002;-0.138;-89.823;0.111;0.504;-3.328;-1.664;-14.476;1.583;-5.386;21.283;
3197;1.011;-0.002;0.002;-0.138;-89.823;0.111;0.504;-3.328;-1.664;-14.476;1.583;-5.386;21.283;
3198;1.011;-0.002;0.002;-0.138;-89.823;0.111;0.504;-3.328;-1.664;-14.476;1.583;-5.386;21.283;
3199;1.011;-0.002;0.002;-0.138;-89.823;0.111;0.504;-3.328;-1.664;-14.476;1.583;-5.386;21.283;
3200;1.011;-0.002;0.002;-0.138;-89.823;0.111;0.504;-3.328;-1.664;-14.476;1.583;-5.386;21.283;
3201;1.017;0.001;0.008;0.069;-89.541;0.454;0.626;-3.130;-1.573;-14.494;1.597;-5.401;21.189;
3202;1.017;0.001;0.008;0.069;-89.541;0.454;0.626;-3.130;-1.573;-14.494;1.597;-5.401;21.189;
3203;1.017;0.001;0.008;0.069;-89.541;0.454;0.626;-3.130;-1.573;-14.494;1.597;-5.401;21.189;
3204;1.017;0.001;0.008;0.069;-191;-3.359;-1.542;-15.179;1.688;-5.756;21.236;
3415;1.013;-0.004;0.009;-0.248;-89.420;0.525;0.611;-3.359;-1.542;-15.179;1.688;-5.756;21.236;
3416;1.013;-0.004.248;-89.420;0.525;0.611;-3.359;-1.542;-15.179;1.688;-5.756;21.236;
3417;1.013;-0.004;0.009;-0.248;-89.420;0.525;0.611;-3.359;-1.542;-15.179;1.688;-5.756;21.236;
3418;1.013;-0.004;0.009;-0.248;-89.420;0.525;0.611;-3.359;-1.542;-15.179;1.688;-5.756;21.236;
3419;1.010;0.005;0.009;0.277;-89.418;0.512;0.473;-3.252;-1.542;-15.213;1.714;-5.772;21.236;
3420;1.010;0.005;0.009;0.277;-89.418;0.512;0.473;-3.252;-1.542;-15.213;1.714;-5.772;21.236;
3421;1.010;0.005;0.009;0.277;-89.418;0.512;0.473;-3.252;-1.542;-15.213;1.714;-5.772;21.236;
3422;1.010;0.005;0.009;0.277;-89.418;0.512;0.473;-3.252;-1.542;-15.213;1.714;-5.772;21.236;
3423;1.010;0.005;0.009;0.277;-89.418;0.512;0.473;-3.252;-1.542;-15.213;1.714;-5.772;21.236;
3424;1.010;0.005;0.009;0.277;-89.418;0.512;0.473;-3.252;-1.542;-15.213;1.714;-5.772;21.236;
3425;1.010;0.005;0.009;0.277;-89.418;0.512;0.473;-3.252;-1.542;-15.213;1.714;-5.772;21.236;
3426;1.010;0.005;0.009;0.277;-89.418;0.512;0.473;-3.252;-1.542;-15.213;1.714;-5.772;21.236;
3427;1.010;0.005;0.009;0.277;-89.418;0.512;0.473;-3.252;-1.542;-15.213;1.714;-5.772;21.236;
3428;1.010;0.004;0.011;0.221;-89.326;0.637;0.321;-3.328;-1.527;-15.239;1.714;-5.787;21.189;
3429;1.010;0.004;0.011;0.221;-89.326;0.637;0.321;-3.328;-1.527;-15.239;1.714;-5.787;21.189;
3430;1.010;0.004;0.011;0.221;-89.326;0.637;0.321;-3.328;-1.527;-15.239;1.714;-5.787;21.189;
3431;1.010;0.004;0.011;0.221;-89.326;0.637;0.321;-3.328;-1.527;-15.239;1.714;-5.787;21.189;
3432;1.010;0.004;0.011;0.221;-89.326;0.637;0.321;-3.328;-1.527;-15.239;1.714;-5.787;21.189;
3433;1.010;0.004;0.011;0.221;-89.326;0.637;0.321;-3.328;-1.527;-15.239;1.714;-5.787;21.189;
3434;1.010;0.004;0.011;0.221;-89.326;0.637;0.321;-3.328;-1.527;-15.239;1.714;-5.787;21.189;
3435;1.010;0.004;0.011;0.221;-89.326;0.637;0.321;-3.328;-1.527;-15.239;1.714;-5.787;21.189;
3436;1.010;0.004;0.011;0.221;-89.326;0.637;0.321;-3.328;-1.527;-15.239;1.714;-5.787;21.189;
3437;1.010;0.004;0.011;0.221;-89.326;0.637;0.321;-3.328;-1.527;-15.239;1.714;-5.787;21.189;
3438;1.013;0.005;0.015;0.262;-89.105;0.856;0.397;-3.115;-1.557;-15.262;1.720;-5.803;21.189;
3439;1.013;0.005;0.015;0.262;-89.105;0.856;0.397;-3.115;-1.557;-15.262;1.720;-5.803;21.189;
3440;1.013;0.005;0.015;0.262;-89.105;0.856;0.397;-3.115;-1.557;-15.262;1.720;-5.803;21.189;
3441;1.013;0.005;0.015;0.262;-89.105;0.856;0.397;-3.115;-1.557;-15.262;1.720;-5.803;21.189;
3442;1.013;0.005;0.015;0.262;-89.105;0.856;0.397;-3.115;-1.557;-15.262;1.720;-5.803;21.189;
3443;1.013;0.005;0.015;0.262;-89.105;0.856;0.397;-3.115;-1.557;-15.262;1.720;-5.803;21.189;
3444;1.013;0.005;0.015;0.262;-89.105;0.856;0.397;-3.115;-1.557;-15.262;1.720;-5.803;21.189;
3445;1.013;0.005;0.015;0.262;-89.105;0.856;0.397;-3.115;-1.557;-15.262;1.720;-5.803;21.189;
3446;1.013;0.005;0.015;0.262;-89.105;0.856;0.397;-3.115;-1.557;-15.262;1.720;-5.803;21.189;
3447;1.016;0.003;0.011;0.165;-89.332;0.647;0.580;-3.176;-1.679;-15.300;1.721;-5.819;21.189;
3448;1.016;0.003;0.011;0.165;-89.332;0.647;0.580;-3.176;-1.679;-15.300;1.721;-5.819;21.189;
3449;1.016;0.003;0.011;0.165;-89.332;0.647;0.580;-3.176;-1.679;-15.300;1.721;-5.819;21.189;
3450;1.016;0.003;0.011;0.165;-89.332;0.647;0.580;-3.176;-1.679;-15.300;1.721;-5.819;21.189;
3451;1.016;0.003;0.011;0.165;-89.332;0.647;0.580;-3.176;-1.679;-15.300;1.721;-5.819;21.189;
3452;1.016;0.003;0.011;0.165;-89.332;0.647;0.580;-3.176;-1.679;-15.300;1.721;-5.819;21.189;
3453;1.016;0.003;0.011;0.165;-89.332;0.647;0.580;-3.176;-1.679;-15.300;1.721;-5.819;21.189;
3454;1.016;0.003;0.011;0.165;-89.332;0.647;0.580;-3.176;-1.679;-15.300;1.721;-5.819;21.189;
3455;1.016;0.003;0.011;0.165;-89.332;0.647;0.580;-3.176;-1.679;-15.300;1.721;-5.819;21.189;
3456;1.016;0.003;0.011;0.165;-89.332;0.647;0.580;-3.176;-1.679;-15.300;1.721;-5.819;21.189;
3457;1.016;-0.000;0.004;-0.014;-89.766;0.234;0.412;-3.237;-1.771;-15.349;1.718;-5.837;21.189;
3458;1.016;-0.000;0.004;-0.014;-89.766;0.234;0.412;-3.237;-1.771;-15.349;1.718;-5.837;21.189;
3459;1.016;-0.000;0.004;-0.014;-89.766;0.234;0.412;-3.237;-1.771;-15.349;1.718;-5.837;21.189;
3460;1.016;-0.000;0.004;-0.014;-89.766;0.234;0.412;-3.237;-1.771;-15.349;1.718;-5.837;21.189;
3461;1.016;-0.000;0.004;-0.014;-89.766;0.234;0.412;-3.237;-1.771;-15.349;1.718;-5.837;21.189;
3462;1.016;-0.000;0.004;-0.014;-89.766;0.234;0.412;-3.237;-1.771;-15.349;1.718;-5.837;21.189;
3463;1.016;-0.000;0.004;-0.014;-89.766;0.234;0.412;-3.237;-1.771;-15.349;1.718;-5.837;21.189;
3464;1.016;-0.000;0.004;-0.014;-89.766;0.234;0.412;-3.237;-1.771;-15.349;1.718;-5.837;21.189;
3465;1.016;-0.000;0.004;-0.014;-89.766;0.234;0.412;-3.237;-1.771;-15.349;1.718;-5.837;21.189;
3466;1.013;-0.001;0.016;-0.069;-89.072;0.925;0.229;-3.221;-1.481;-15.352;1.718;-5.852;21.283;
3467;1.013;-0.001;0.016;-0.069;-89.072;0.925;0.229;-3.221;-1.481;-15.352;1.718;-5.852;21.283;
3468;1.013;-0.001;0.016;-0.069;-89.072;0.925;0.229;-3.221;-1.481;-15.352;1.718;-5.852;21.283;
3469;1.013;-0.001;0.016;-0.069;-89.072;0.925;0.229;-3.221;-1.481;-15.352;1.718;-5.852;21.283;
3470;1-00.001;0.016;-0.042;-89.085;0.914;0.305;-3.252;-1.588;-16.143;1.834;-6.248;21.236;
3706;1.010;-0.001;0.016;-0.042;-89.085;0.914;0.305;-3.252;-1.588;-16.143;1.834;-6.248;21.236;
3707;1.010;-0.001;0.016;-0.042;-89.085;0.914;0.305;-3.252;-1.588;-16.143;1.834;-6.248;21.236;
3708;1.010;-0.001;0.016;-0.042;-89.085;0.914;0.305;-3.252;-1.588;-16.143;1.834;-6.248;21.236;
3709;1.010;-0.001;0.016;-0.042;-89.085;0.914;0.305;-3.252;-1.588;-16.143;1.834;-6.248;21.236;
3710;1.010;-0.001;0.016;-0.042;-89.085;0.914;0.305;-3.252;-1.588;-16.143;1.834;-6.248;21.236;
3711;1.010;-0.001;0.016;-0.042;-89.085;0.914;0.305;-3.252;-1.588;-16.143;1.834;-6.248;21.236;
3712;1.019;0.000;0.007;0.027;-89.614;0.385;0.168;-3.237;-1.573;-16.194;1.838;-6.263;21.236;
3713;1.019;0.000;0.007;0.027;-89.614;0.385;0.168;-3.237;-1.573;-16.194;1.838;-6.263;21.236;
3714;1.019;0.000;0.007;0.027;-89.614;0.385;0.168;-3.237;-1.573;-16.194;1.838;-6.263;21.236;
3715;1.019;0.000;0.007;0.027;-89.614;0.385;0.168;-3.237;-1.573;-16.194;1.838;-6.263;21.236;
3716;1.019;0.000;0.007;0.027;-89.614;0.385;0.168;-3.237;-1.573;-16.194;1.838;-6.263;21.236;
3717;1.019;0.000;0.007;0.027;-89.614;0.385;0.168;-3.237;-1.573;-16.194;1.838;-6.263;21.236;
3718;1.019;0.000;0.007;0.027;-89.614;0.385;0.168;-3.237;-1.573;-16.194;1.838;-6.263;21.236;
3719;1.019;0.000;0.007;0.027;-89.614;0.385;0.168;-3.237;-1.573;-16.194;1.838;-6.263;21.236;
3720;1.019;0.000;0.007;0.027;-89.614;0.385;0.168;-3.237;-1.573;-16.194;1.838;-6.263;21.236;
3721;1.019;0.000;0.007;0.027;-89.614;0.385;0.168;-3.237;-1.573;-16.194;1.838;-6.263;21.236;
3722;1.016;-0.002;0.010;-0.124;-89.435;0.551;0.641;-3.359;-1.466;-16.221;1.838;-6.279;21.236;
3723;1.016;-0.002;0.010;-0.124;-89.435;0.551;0.641;-3.359;-1.466;-16.221;1.838;-6.279;21.236;
3724;1.016;-0.002;0.010;-0.124;-89.435;0.551;0.641;-3.359;-1.466;-16.221;1.838;-6.279;21.236;
3725;1.016;-0.002;0.010;-0.124;-89.435;0.551;0.641;-3.359;-1.466;-16.221;1.838;-6.279;21.236;
3726;1.016;-0.002;0.010;-0.124;-89.435;0.551;0.641;-3.359;-1.466;-16.221;1.838;-6.279;21.236;
3727;1.016;-0.002;0.010;-0.124;-89.435;0.551;0.641;-3.359;-1.466;-16.221;1.838;-6.279;21.236;
3728;1.016;-0.002;0.010;-0.124;-89.435;0.551;0.641;-3.359;-1.466;-16.221;1.838;-6.279;21.236;
3729;1.016;-0.002;0.010;-0.124;-89.435;0.551;0.641;-3.359;-1.466;-16.221;1.838;-6.279;21.236;
3730;1.016;-0.002;0.010;-0.124;-89.435;0.551;0.641;-3.359;-1.466;-16.221;1.838;-6.279;21.236;
3731;1.016;0.002;0.010;0.138;-89.446;0.537;0.458;-3.481;-1.756;-16.253;1.853;-6.296;21.330;
3732;1.016;0.002;0.010;0.138;-89.446;0.537;0.458;-3.481;-1.756;-16.253;1.853;-6.296;21.330;
3733;1.016;0.002;0.010;0.138;-89.446;0.537;0.458;-3.481;-1.756;-16.253;1.853;-6.296;21.330;
3734;1.016;0.002;0.010;0.138;-89.446;0.537;0.458;-3.481;-1.756;-16.253;1.853;-6.296;21.330;
3735;1.016;0.002;0.010;0.138;-89.446;0.537;0.458;-3.481;-1.756;-16.253;1.853;-6.296;21.330;
3736;1.016;0.002;0.010;0.138;-89.446;0.537;0.458;-3.481;-1.756;-16.253;1.853;-6.296;21.330;
3737;1.016;0.002;0.010;0.138;-89.446;0.537;0.458;-3.481;-1.756;-16.253;1.853;-6.296;21.330;
3738;1.016;0.002;0.010;0.138;-89.446;0.537;0.458;-3.481;-1.756;-16.253;1.853;-6.296;21.330;
3739;1.016;0.002;0.010;0.138;-89.446;0.537;0.458;-3.481;-1.756;-16.253;1.853;-6.296;21.330;
3740;1.016;0.002;0.010;0.138;-89.446;0.537;0.458;-3.481;-1.756;-16.253;1.853;-6.296;21.330;
3741;1.016;0.001;0.018;0.041;-89.008;0.991;0.443;-3.359;-1.557;-16.269;1.854;-6.312;21.236;
3742;1.016;0.001;0.018;0.041;-89.008;0.991;0.443;-3.359;-1.557;-16.269;1.854;-6.312;21.236;
3743;1.016;0.001;0.018;0.041;-89.008;0.991;0.443;-3.359;-1.557;-16.269;1.854;-6.312;21.236;
3744;1.016;0.001;0.018;0.041;-89.008;0.991;0.443;-3.359;-1.557;-16.269;1.854;-6.312;21.236;
3745;1.016;0.001;0.018;0.041;-89.008;0.991;0.443;-3.359;-1.557;-16.269;1.854;-6.312;21.236;
3746;1.016;0.001;0.018;0.041;-89.008;0.991;0.443;-3.359;-1.557;-16.269;1.854;-6.312;21.236;
3747;1.016;0.001;0.018;0.041;-89.008;0.991;0.443;-3.359;-1.557;-16.269;1.854;-6.312;21.236;
3748;1.016;0.001;0.018;0.041;-89.008;0.991;0.443;-3.359;-1.557;-16.269;1.854;-6.312;21.236;
3749;1.016;0.001;0.018;0.041;-89.008;0.991;0.443;-3.359;-1.557;-16.269;1.854;-6.312;21.236;
3750;1.019;-0.001;0.012;-0.055;-89.339;0.659;0.336;-3.298;-1.802;-16.313;1.853;-6.329;21.236;
3751;1.019;-0.001;0.012;-0.055;-89.339;0.659;0.336;-3.298;-1.802;-16.313;1.853;-6.329;21.236;
3752;1.019;-0.001;0.012;-0.055;-89.339;0.659;0.336;-3.298;-1.802;-16.313;1.853;-6.329;21.236;
3753;1.019;-0.001;0.012;-0.055;-89.339;0.659;0.;3-17.090;1.977;-6.717;21.330;
3991;1.011;0.001;0.017;0.055;-89.030;0.968;0.427;-3.191;-1.573;-17.090;1.977;-6.717;21.330;
3992;1.011;0.001;0.017;0.055;-89.030;0.968;0.427;-3.191;-1.573;-17.090;1.977;-6.717;21.330;
3993;1.011;0.001;0.017;0.055;-89.030;0.968;0.427;-3.191;-1.573;-17.090;1.977;-6.717;21.330;
3994;1.011;0.001;0.017;0.055;-89.030;0.968;0.427;-3.191;-1.573;-17.090;1.977;-6.717;21.330;
3995;1.021;-0.001;0.021;-0.069;-88.847;1.151;0.305;-3.344;-1.588;-17.113;1.975;-6.732;21.236;
3996;1.021;-0.001;0.021;-0.069;-88.847;1.151;0.305;-3.344;-1.588;-17.113;1.975;-6.732;21.236;
3997;1.021;-0.001;0.021;-0.069;-88.847;1.151;0.305;-3.344;-1.588;-17.113;1.975;-6.732;21.236;
3998;1.021;-0.001;0.021;-0.069;-88.847;1.151;0.305;-3.344;-1.588;-17.113;1.975;-6.732;21.236;
3999;1.021;-0.001;0.021;-0.069;-88.847;1.151;0.305;-3.344;-1.588;-17.113;1.975;-6.732;21.236;
4000;1.021;-0.001;0.021;-0.069;-88.847;1.151;0.305;-3.344;-1.588;-17.113;1.975;-6.732;21.236;
4001;1.021;-0.001;0.021;-0.069;-88.847;1.151;0.305;-3.344;-1.588;-17.113;1.975;-6.732;21.236;
4002;1.021;-0.001;0.021;-0.069;-88.847;1.151;0.305;-3.344;-1.588;-17.113;1.975;-6.732;21.236;
4003;1.021;-0.001;0.021;-0.069;-88.847;1.151;0.305;-3.344;-1.588;-17.113;1.975;-6.732;21.236;
4004;1.021;-0.001;0.021;-0.069;-88.847;1.151;0.305;-3.344;-1.588;-17.113;1.975;-6.732;21.236;
4005;1.015;0.001;0.008;0.041;-89.530;0.468;0.351;-3.328;-1.603;-17.175;1.983;-6.749;21.236;
4006;1.015;0.001;0.008;0.041;-89.530;0.468;0.351;-3.328;-1.603;-17.175;1.983;-6.749;21.236;
4007;1.015;0.001;0.008;0.041;-89.530;0.468;0.351;-3.328;-1.603;-17.175;1.983;-6.749;21.236;
4008;1.015;0.001;0.008;0.041;-89.530;0.468;0.351;-3.328;-1.603;-17.175;1.983;-6.749;21.236;
4009;1.015;0.001;0.008;0.041;-89.530;0.468;0.351;-3.328;-1.603;-17.175;1.983;-6.749;21.236;
4010;1.015;0.001;0.008;0.041;-89.530;0.468;0.351;-3.328;-1.603;-17.175;1.983;-6.749;21.236;
4011;1.015;0.001;0.008;0.041;-89.530;0.468;0.351;-3.328;-1.603;-17.175;1.983;-6.749;21.236;
4012;1.015;0.001;0.008;0.041;-89.530;0.468;0.351;-3.328;-1.603;-17.175;1.983;-6.749;21.236;
4013;1.015;0.001;0.008;0.041;-89.530;0.468;0.351;-3.328;-1.603;-17.175;1.983;-6.749;21.236;
4014;1.018;-0.001;0.014;-0.082;-89.199;0.797;0.489;-3.145;-1.664;-17.190;1.983;-6.765;21.236;
4015;1.018;-0.001;0.014;-0.082;-89.199;0.797;0.489;-3.145;-1.664;-17.190;1.983;-6.765;21.236;
4016;1.018;-0.001;0.014;-0.082;-89.199;0.797;0.489;-3.145;-1.664;-17.190;1.983;-6.765;21.236;
4017;1.018;-0.001;0.014;-0.082;-89.199;0.797;0.489;-3.145;-1.664;-17.190;1.983;-6.765;21.236;
4018;1.018;-0.001;0.014;-0.082;-89.199;0.797;0.489;-3.145;-1.664;-17.190;1.983;-6.765;21.236;
4019;1.018;-0.001;0.014;-0.082;-89.199;0.797;0.489;-3.145;-1.664;-17.190;1.983;-6.765;21.236;
4020;1.018;-0.001;0.014;-0.082;-89.199;0.797;0.489;-3.145;-1.664;-17.190;1.983;-6.765;21.236;
4021;1.018;-0.001;0.014;-0.082;-89.199;0.797;0.489;-3.145;-1.664;-17.190;1.983;-6.765;21.236;
4022;1.018;-0.001;0.014;-0.082;-89.199;0.797;0.489;-3.145;-1.664;-17.190;1.983;-6.765;21.236;
4023;1.018;-0.001;0.014;-0.082;-89.199;0.797;0.489;-3.145;-1.664;-17.190;1.983;-6.765;21.236;
4024;1.013;-0.003;0.012;-0.152;-89.320;0.663;0.519;-3.252;-1.511;-17.228;1.985;-6.781;21.142;
4025;1.013;-0.003;0.012;-0.152;-89.320;0.663;0.519;-3.252;-1.511;-17.228;1.985;-6.781;21.142;
4026;1.013;-0.003;0.012;-0.152;-89.320;0.663;0.519;-3.252;-1.511;-17.228;1.985;-6.781;21.142;
4027;1.013;-0.003;0.012;-0.152;-89.320;0.663;0.519;-3.252;-1.511;-17.228;1.985;-6.781;21.142;
4028;1.013;-0.003;0.012;-0.152;-89.320;0.663;0.519;-3.252;-1.511;-17.228;1.985;-6.781;21.142;
4029;1.013;-0.003;0.012;-0.152;-89.320;0.663;0.519;-3.252;-1.511;-17.228;1.985;-6.781;21.142;
4030;1.013;-0.003;0.012;-0.152;-89.320;0.663;0.519;-3.252;-1.511;-17.228;1.985;-6.781;21.142;
4031;1.013;-0.003;0.012;-0.152;-89.320;0.663;0.519;-3.252;-1.511;-17.228;1.985;-6.781;21.142;
4032;1.013;-0.003;0.012;-0.152;-89.320;0.663;0.519;-3.252;-1.511;-17.228;1.985;-6.781;21.142;
4033;1.014;-0.005;0.011;-0.290;-89.327;0.607;0.321;-3.328;-1.664;-17.259;1.983;-6.797;21.283;
4034;1.014;-0.005;0.011;-0.290;-89.327;0.607;0.321;-3.328;-1.664;-17.259;1.983;-6.797;21.283;
4035;1.014;-0.005;0.011;-0.290;-89.327;0.607;0.321;-3.328;-1.664;-17.259;1.983;-6.797;21.283;
4036;1.014;-0.005;0.011;-0.290;-89.327;0.607;0.321;-3.328;-1.664;-17.259;1.983;-6.797;21.283;
4037;1.014;-0.005;0.011;-0.290;-89.327;0.607;0.321;-3.328;-1.664;-17.259;1.983;-6.797;21.283;
4038;1.014;-0.005;0.011;-0.290;-89.327;0.607;0.321;-3.328;-1.664;-17.259;1.983;-6.797;21.283;
4039;1.014;-0.005;0.011;-0.290;-89.327;0.607;0.321;-3.328;-1.664;-17.259;1.983;-6.797;21.283;
4040;1.014;-0.005;0.011;-0.290;-89.327;0.607;0.321;-3.328;-1.664;-17.259;1.983;-6.797;21.283;
4041;1.014;-0.005;0.011;-0.290;-89.327;0.607;0.321;-3.328;-1.664;-17.259;1.983;-6.797;21.283;
4042;1.020;0.000;0.008;0.027;-89.547;0.453;0.504;-3.313;-1.389;-17.299;2.000;-6.810;21.189;
4043;1.020;0.000;0.008;0.027;-89.547;0.453;0.504;-3.313;-1.389;-17.299;2.000;-6.810;21.189;
4044;1.020;0.000;0.008;0.027;-89.547;0.453;0.504;-3.313;-1.389;-17.299;2.000;-6.810;21.189;
4045;1.020;0.000;0.008;0.027;-89.547;0.453;0.504;-3.313;-1.389;-17.299;2.000;-6.810;21.189;
4046;1.020;0.000;0.008;0.027;-89.547;0.453;0.504;-3.313;;1-1.634;-18.034;2.116;-7.182;21.142;
4270;1.021;0.003;0.015;0.164;-89.148;0.836;0.565;-3.176;-1.634;-18.034;2.116;-7.182;21.142;
4271;1.021;0.003;0.015;0.164;-89.148;0.836;0.565;-3.176;-1.634;-18.034;2.116;-7.182;21.142;
4272;1.021;0.003;0.015;0.164;-89.148;0.836;0.565;-3.176;-1.634;-18.034;2.116;-7.182;21.142;
4273;1.021;0.003;0.015;0.164;-89.148;0.836;0.565;-3.176;-1.634;-18.034;2.116;-7.182;21.142;
4274;1.021;0.003;0.015;0.164;-89.148;0.836;0.565;-3.176;-1.634;-18.034;2.116;-7.182;21.142;
4275;1.021;0.003;0.015;0.164;-89.148;0.836;0.565;-3.176;-1.634;-18.034;2.116;-7.182;21.142;
4276;1.021;0.003;0.015;0.164;-89.148;0.836;0.565;-3.176;-1.634;-18.034;2.116;-7.182;21.142;
4277;1.021;0.003;0.015;0.164;-89.148;0.836;0.565;-3.176;-1.634;-18.034;2.116;-7.182;21.142;
4278;1.021;0.003;0.015;0.164;-89.148;0.836;0.565;-3.176;-1.634;-18.034;2.116;-7.182;21.142;
4279;1.014;-0.003;0.017;-0.179;-89.005;0.979;0.595;-3.344;-1.618;-18.062;2.108;-7.199;21.236;
4280;1.014;-0.003;0.017;-0.179;-89.005;0.979;0.595;-3.344;-1.618;-18.062;2.108;-7.199;21.236;
4281;1.014;-0.003;0.017;-0.179;-89.005;0.979;0.595;-3.344;-1.618;-18.062;2.108;-7.199;21.236;
4282;1.014;-0.003;0.017;-0.179;-89.005;0.979;0.595;-3.344;-1.618;-18.062;2.108;-7.199;21.236;
4283;1.014;-0.003;0.017;-0.179;-89.005;0.979;0.595;-3.344;-1.618;-18.062;2.108;-7.199;21.236;
4284;1.014;-0.003;0.017;-0.179;-89.005;0.979;0.595;-3.344;-1.618;-18.062;2.108;-7.199;21.236;
4285;1.014;-0.003;0.017;-0.179;-89.005;0.979;0.595;-3.344;-1.618;-18.062;2.108;-7.199;21.236;
4286;1.014;-0.003;0.017;-0.179;-89.005;0.979;0.595;-3.344;-1.618;-18.062;2.108;-7.199;21.236;
4287;1.014;-0.003;0.017;-0.179;-89.005;0.979;0.595;-3.344;-1.618;-18.062;2.108;-7.199;21.236;
4288;1.016;-0.000;0.010;-0.028;-89.421;0.578;0.473;-3.405;-1.496;-18.111;2.118;-7.214;21.236;
4289;1.016;-0.000;0.010;-0.028;-89.421;0.578;0.473;-3.405;-1.496;-18.111;2.118;-7.214;21.236;
4290;1.016;-0.000;0.010;-0.028;-89.421;0.578;0.473;-3.405;-1.496;-18.111;2.118;-7.214;21.236;
4291;1.016;-0.000;0.010;-0.028;-89.421;0.578;0.473;-3.405;-1.496;-18.111;2.118;-7.214;21.236;
4292;1.016;-0.000;0.010;-0.028;-89.421;0.578;0.473;-3.405;-1.496;-18.111;2.118;-7.214;21.236;
4293;1.016;-0.000;0.010;-0.028;-89.421;0.578;0.473;-3.405;-1.496;-18.111;2.118;-7.214;21.236;
4294;1.016;-0.000;0.010;-0.028;-89.421;0.578;0.473;-3.405;-1.496;-18.111;2.118;-7.214;21.236;
4295;1.016;-0.000;0.010;-0.028;-89.421;0.578;0.473;-3.405;-1.496;-18.111;2.118;-7.214;21.236;
4296;1.016;-0.000;0.010;-0.028;-89.421;0.578;0.473;-3.405;-1.496;-18.111;2.118;-7.214;21.236;
4297;1.014;0.001;0.005;0.055;-89.732;0.262;0.565;-3.344;-1.588;-18.154;2.127;-7.229;21.236;
4298;1.014;0.001;0.005;0.055;-89.732;0.262;0.565;-3.344;-1.588;-18.154;2.127;-7.229;21.236;
4299;1.014;0.001;0.005;0.055;-89.732;0.262;0.565;-3.344;-1.588;-18.154;2.127;-7.229;21.236;
4300;1.014;0.001;0.005;0.055;-89.732;0.262;0.565;-3.344;-1.588;-18.154;2.127;-7.229;21.236;
4301;1.014;0.001;0.005;0.055;-89.732;0.262;0.565;-3.344;-1.588;-18.154;2.127;-7.229;21.236;
4302;1.014;0.001;0.005;0.055;-89.732;0.262;0.565;-3.344;-1.588;-18.154;2.127;-7.229;21.236;
4303;1.014;0.001;0.005;0.055;-89.732;0.262;0.565;-3.344;-1.588;-18.154;2.127;-7.229;21.236;
4304;1.014;0.001;0.005;0.055;-89.732;0.262;0.565;-3.344;-1.588;-18.154;2.127;-7.229;21.236;
4305;1.014;0.001;0.005;0.055;-89.732;0.262;0.565;-3.344;-1.588;-18.154;2.127;-7.229;21.236;
4306;1.014;0.001;0.005;0.055;-89.732;0.262;0.565;-3.344;-1.588;-18.154;2.127;-7.229;21.236;
4307;1.017;0.001;0.011;0.069;-89.391;0.605;0.504;-3.298;-1.496;-18.173;2.132;-7.244;21.283;
4308;1.017;0.001;0.011;0.069;-89.391;0.605;0.504;-3.298;-1.496;-18.173;2.132;-7.244;21.283;
4309;1.017;0.001;0.011;0.069;-89.391;0.605;0.504;-3.298;-1.496;-18.173;2.132;-7.244;21.283;
4310;1.017;0.001;0.011;0.069;-89.391;0.605;0.504;-3.298;-1.496;-18.173;2.132;-7.244;21.283;
4311;1.017;0.001;0.011;0.069;-89.391;0.605;0.504;-3.298;-1.496;-18.173;2.132;-7.244;21.283;
4312;1.017;0.001;0.011;0.069;-89.391;0.605;0.504;-3.298;-1.496;-18.173;2.132;-7.244;21.283;
4313;1.017;0.001;0.011;0.069;-89.391;0.605;0.504;-3.298;-1.496;-18.173;2.132;-7.244;21.283;
4314;1.017;0.001;0.011;0.069;-89.391;0.605;0.504;-3.298;-1.496;-18.173;2.132;-7.244;21.283;
4315;1.017;0.001;0.011;0.069;-89.391;0.605;0.504;-3.298;-1.496;-18.173;2.132;-7.244;21.283;
4316;1.013;0.003;0.012;0.193;-89.270;0.704;0.489;-3.557;-1.618;-18.201;2.142;-7.260;21.142;
4317;1.013;0.003;0.012;0.193;-89.270;0.704;0.489;-3.557;-1.618;-18.201;2.142;-7.260;21.142;
4318;1.013;0.003;0.012;0.193;-89.270;0.704;0.489;-3.557;-1.618;-18.201;2.142;-7.260;21.142;
4319;1.013;0.003;0.012;0.193;-89.270;0.704;0.489;-3.557;-1.618;-18.201;2.142;-7.260;21.142;
4320;1.013;0.003;0.012;0.193;-89.270;0.704;0.489;-3.557;-1.618;-18.201;2.142;-7.260;21.142;
4321;1.013;0.003;0.012;0.193;-89.270;0.704;0.489;-3.557;-1.618;-18.201;2.142;-7.260;21.142;
4322;1.013;0.003;0.012;0.193;-89.270;0.704;0.489;-3.557;-1.618;-18
24553;1.018;-0.002;0.017;-0.096;-89.020;0.975;0.397;-3.176;-1.511;-18.990;2.241;-7.646;21.236;
4554;1.018;-0.002;0.017;-0.096;-89.020;0.975;0.397;-3.176;-1.511;-18.990;2.241;-7.646;21.236;
4555;1.018;-0.002;0.017;-0.096;-89.020;0.975;0.397;-3.176;-1.511;-18.990;2.241;-7.646;21.236;
4556;1.018;-0.002;0.017;-0.096;-89.020;0.975;0.397;-3.176;-1.511;-18.990;2.241;-7.646;21.236;
4557;1.018;-0.002;0.017;-0.096;-89.020;0.975;0.397;-3.176;-1.511;-18.990;2.241;-7.646;21.236;
4558;1.018;-0.002;0.017;-0.096;-89.020;0.975;0.397;-3.176;-1.511;-18.990;2.241;-7.646;21.236;
4559;1.018;-0.002;0.017;-0.096;-89.020;0.975;0.397;-3.176;-1.511;-18.990;2.241;-7.646;21.236;
4560;1.018;-0.002;0.017;-0.096;-89.020;0.975;0.397;-3.176;-1.511;-18.990;2.241;-7.646;21.236;
4561;1.018;-0.002;0.017;-0.096;-89.020;0.975;0.397;-3.176;-1.511;-18.990;2.241;-7.646;21.236;
4562;1.018;-0.002;0.017;-0.096;-89.020;0.975;0.397;-3.176;-1.511;-18.990;2.241;-7.646;21.236;
4563;1.017;-0.001;0.006;-0.083;-89.660;0.330;0.550;-3.328;-1.695;-19.050;2.248;-7.664;21.236;
4564;1.017;-0.001;0.006;-0.083;-89.660;0.330;0.550;-3.328;-1.695;-19.050;2.248;-7.664;21.236;
4565;1.017;-0.001;0.006;-0.083;-89.660;0.330;0.550;-3.328;-1.695;-19.050;2.248;-7.664;21.236;
4566;1.017;-0.001;0.006;-0.083;-89.660;0.330;0.550;-3.328;-1.695;-19.050;2.248;-7.664;21.236;
4567;1.017;-0.001;0.006;-0.083;-89.660;0.330;0.550;-3.328;-1.695;-19.050;2.248;-7.664;21.236;
4568;1.017;-0.001;0.006;-0.083;-89.660;0.330;0.550;-3.328;-1.695;-19.050;2.248;-7.664;21.236;
4569;1.017;-0.001;0.006;-0.083;-89.660;0.330;0.550;-3.328;-1.695;-19.050;2.248;-7.664;21.236;
4570;1.017;-0.001;0.006;-0.083;-89.660;0.330;0.550;-3.328;-1.695;-19.050;2.248;-7.664;21.236;
4571;1.017;-0.001;0.006;-0.083;-89.660;0.330;0.550;-3.328;-1.695;-19.050;2.248;-7.664;21.236;
4572;1.014;-0.001;0.009;-0.041;-89.474;0.524;0.427;-3.328;-1.710;-19.073;2.253;-7.681;21.236;
4573;1.014;-0.001;0.009;-0.041;-89.474;0.524;0.427;-3.328;-1.710;-19.073;2.253;-7.681;21.236;
4574;1.014;-0.001;0.009;-0.041;-89.474;0.524;0.427;-3.328;-1.710;-19.073;2.253;-7.681;21.236;
4575;1.014;-0.001;0.009;-0.041;-89.474;0.524;0.427;-3.328;-1.710;-19.073;2.253;-7.681;21.236;
4576;1.014;-0.001;0.009;-0.041;-89.474;0.524;0.427;-3.328;-1.710;-19.073;2.253;-7.681;21.236;
4577;1.014;-0.001;0.009;-0.041;-89.474;0.524;0.427;-3.328;-1.710;-19.073;2.253;-7.681;21.236;
4578;1.014;-0.001;0.009;-0.041;-89.474;0.524;0.427;-3.328;-1.710;-19.073;2.253;-7.681;21.236;
4579;1.014;-0.001;0.009;-0.041;-89.474;0.524;0.427;-3.328;-1.710;-19.073;2.253;-7.681;21.236;
4580;1.014;-0.001;0.009;-0.041;-89.474;0.524;0.427;-3.328;-1.710;-19.073;2.253;-7.681;21.236;
4581;1.010;-0.007;0.007;-0.374;-89.461;0.388;0.504;-3.206;-1.344;-19.103;2.245;-7.694;21.189;
4582;1.010;-0.007;0.007;-0.374;-89.461;0.388;0.504;-3.206;-1.344;-19.103;2.245;-7.694;21.189;
4583;1.010;-0.007;0.007;-0.374;-89.461;0.388;0.504;-3.206;-1.344;-19.103;2.245;-7.694;21.189;
4584;1.010;-0.007;0.007;-0.374;-89.461;0.388;0.504;-3.206;-1.344;-19.103;2.245;-7.694;21.189;
4585;1.010;-0.007;0.007;-0.374;-89.461;0.388;0.504;-3.206;-1.344;-19.103;2.245;-7.694;21.189;
4586;1.010;-0.007;0.007;-0.374;-89.461;0.388;0.504;-3.206;-1.344;-19.103;2.245;-7.694;21.189;
4587;1.010;-0.007;0.007;-0.374;-89.461;0.388;0.504;-3.206;-1.344;-19.103;2.245;-7.694;21.189;
4588;1.010;-0.007;0.007;-0.374;-89.461;0.388;0.504;-3.206;-1.344;-19.103;2.245;-7.694;21.189;
4589;1.010;-0.007;0.007;-0.374;-89.461;0.388;0.504;-3.206;-1.344;-19.103;2.245;-7.694;21.189;
4590;1.010;-0.007;0.007;-0.374;-89.461;0.388;0.504;-3.206;-1.344;-19.103;2.245;-7.694;21.189;
4591;1.017;-0.005;0.013;-0.289;-89.228;0.715;0.504;-3.298;-1.802;-19.127;2.253;-7.713;21.189;
4592;1.017;-0.005;0.013;-0.289;-89.228;0.715;0.504;-3.298;-1.802;-19.127;2.253;-7.713;21.189;
4593;1.017;-0.005;0.013;-0.289;-89.228;0.715;0.504;-3.298;-1.802;-19.127;2.253;-7.713;21.189;
4594;1.017;-0.005;0.013;-0.289;-89.228;0.715;0.504;-3.298;-1.802;-19.127;2.253;-7.713;21.189;
4595;1.017;-0.005;0.013;-0.289;-89.228;0.715;0.504;-3.298;-1.802;-19.127;2.253;-7.713;21.189;
4596;1.017;-0.005;0.013;-0.289;-89.228;0.715;0.504;-3.298;-1.802;-19.127;2.253;-7.713;21.189;
4597;1.017;-0.005;0.013;-0.289;-89.228;0.715;0.504;-3.298;-1.802;-19.127;2.253;-7.713;21.189;
4598;1.017;-0.005;0.013;-0.289;-89.228;0.715;0.504;-3.298;-1.802;-19.127;2.253;-7.713;21.189;
4599;1.017;-0.005;0.013;-0.289;-89.228;0.715;0.504;-3.298;-1.802;-19.127;2.253;-7.713;21.189;
4600;1.013;0.006;0.004;0.345;-89.583;0.235;0.336;-3.145;-1.756;-19.170;2.282;-7.730;21.189;
4601;1.013;0.006;0.004;0.345;-89.583;0.235;0.336;-3.145;-1.756;-19.170;2.282;-7.730;21.189;
4602;1.013;0.006;0.004;0.345;-89.583;0.235;0.336;-3.145;-1.756;-19.170;2.282;-7.730;21.189;
4603;1.013;0.006;0.004;0.345;-89.583;0.235;0.336;-3.145;-1.756;-19.170;2.282;-7.730;21.189;
4604;1.013;0.006;0.004;0.345;-89.583;0.235;0.336;-3.145;-1.756;-19.170;2.282;-7.730;21.189;
4605;1.013;0.006;0.004;0.345;-89.583;0.235;0.336;-3.145;-1.756;-19.170;2.282;-7.730;21.189;
4606;1.013;0.006;0.004;0.345;-89.583;0.235;0.336;-3.145;-1.756;-19.170;2.282;-7.730;21.189;
4607;1.013;0.006;0.004;0.345;-89.583;0.235;0.336;-3.145;-1.756;-1;.0.799;0.366;-3.206;-1.832;-19.905;2.363;-8.103;21.236;
4830;1.015;-0.003;0.014;-0.193;-89.178;0.799;0.366;-3.206;-1.832;-19.905;2.363;-8.103;21.236;
4831;1.015;-0.003;0.014;-0.193;-89.178;0.799;0.366;-3.206;-1.832;-19.905;2.363;-8.103;21.236;
4832;1.015;-0.003;0.014;-0.193;-89.178;0.799;0.366;-3.206;-1.832;-19.905;2.363;-8.103;21.236;
4833;1.015;-0.003;0.014;-0.193;-89.178;0.799;0.366;-3.206;-1.832;-19.905;2.363;-8.103;21.236;
4834;1.015;-0.003;0.014;-0.193;-89.178;0.799;0.366;-3.206;-1.832;-19.905;2.363;-8.103;21.236;
4835;1.015;-0.003;0.014;-0.193;-89.178;0.799;0.366;-3.206;-1.832;-19.905;2.363;-8.103;21.236;
4836;1.019;-0.002;0.003;-0.096;-89.797;0.179;0.519;-3.191;-1.420;-19.959;2.371;-8.117;21.236;
4837;1.019;-0.002;0.003;-0.096;-89.797;0.179;0.519;-3.191;-1.420;-19.959;2.371;-8.117;21.236;
4838;1.019;-0.002;0.003;-0.096;-89.797;0.179;0.519;-3.191;-1.420;-19.959;2.371;-8.117;21.236;
4839;1.019;-0.002;0.003;-0.096;-89.797;0.179;0.519;-3.191;-1.420;-19.959;2.371;-8.117;21.236;
4840;1.019;-0.002;0.003;-0.096;-89.797;0.179;0.519;-3.191;-1.420;-19.959;2.371;-8.117;21.236;
4841;1.019;-0.002;0.003;-0.096;-89.797;0.179;0.519;-3.191;-1.420;-19.959;2.371;-8.117;21.236;
4842;1.019;-0.002;0.003;-0.096;-89.797;0.179;0.519;-3.191;-1.420;-19.959;2.371;-8.117;21.236;
4843;1.019;-0.002;0.003;-0.096;-89.797;0.179;0.519;-3.191;-1.420;-19.959;2.371;-8.117;21.236;
4844;1.019;-0.002;0.003;-0.096;-89.797;0.179;0.519;-3.191;-1.420;-19.959;2.371;-8.117;21.236;
4845;1.019;-0.002;0.003;-0.096;-89.797;0.179;0.519;-3.191;-1.420;-19.959;2.371;-8.117;21.236;
4846;1.017;0.002;0.016;0.096;-89.087;0.908;0.351;-3.191;-1.573;-19.963;2.383;-8.134;21.283;
4847;1.017;0.002;0.016;0.096;-89.087;0.908;0.351;-3.191;-1.573;-19.963;2.383;-8.134;21.283;
4848;1.017;0.002;0.016;0.096;-89.087;0.908;0.351;-3.191;-1.573;-19.963;2.383;-8.134;21.283;
4849;1.017;0.002;0.016;0.096;-89.087;0.908;0.351;-3.191;-1.573;-19.963;2.383;-8.134;21.283;
4850;1.017;0.002;0.016;0.096;-89.087;0.908;0.351;-3.191;-1.573;-19.963;2.383;-8.134;21.283;
4851;1.017;0.002;0.016;0.096;-89.087;0.908;0.351;-3.191;-1.573;-19.963;2.383;-8.134;21.283;
4852;1.017;0.002;0.016;0.096;-89.087;0.908;0.351;-3.191;-1.573;-19.963;2.383;-8.134;21.283;
4853;1.017;0.002;0.016;0.096;-89.087;0.908;0.351;-3.191;-1.573;-19.963;2.383;-8.134;21.283;
4854;1.017;0.002;0.016;0.096;-89.087;0.908;0.351;-3.191;-1.573;-19.963;2.383;-8.134;21.283;
4855;1.015;0.000;0.015;0.028;-89.159;0.840;0.412;-3.206;-1.496;-19.995;2.384;-8.148;21.236;
4856;1.015;0.000;0.015;0.028;-89.159;0.840;0.412;-3.206;-1.496;-19.995;2.384;-8.148;21.236;
4857;1.015;0.000;0.015;0.028;-89.159;0.840;0.412;-3.206;-1.496;-19.995;2.384;-8.148;21.236;
4858;1.015;0.000;0.015;0.028;-89.159;0.840;0.412;-3.206;-1.496;-19.995;2.384;-8.148;21.236;
4859;1.015;0.000;0.015;0.028;-89.159;0.840;0.412;-3.206;-1.496;-19.995;2.384;-8.148;21.236;
4860;1.015;0.000;0.015;0.028;-89.159;0.840;0.412;-3.206;-1.496;-19.995;2.384;-8.148;21.236;
4861;1.015;0.000;0.015;0.028;-89.159;0.840;0.412;-3.206;-1.496;-19.995;2.384;-8.148;21.236;
4862;1.015;0.000;0.015;0.028;-89.159;0.840;0.412;-3.206;-1.496;-19.995;2.384;-8.148;21.236;
4863;1.015;0.000;0.015;0.028;-89.159;0.840;0.412;-3.206;-1.496;-19.995;2.384;-8.148;21.236;
4864;1.015;0.000;0.015;0.028;-89.159;0.840;0.412;-3.206;-1.496;-19.995;2.384;-8.148;21.236;
4865;1.020;0.001;0.019;0.069;-88.928;1.070;0.458;-3.282;-1.573;-20.019;2.390;-8.165;21.236;
4866;1.020;0.001;0.019;0.069;-88.928;1.070;0.458;-3.282;-1.573;-20.019;2.390;-8.165;21.236;
4867;1.020;0.001;0.019;0.069;-88.928;1.070;0.458;-3.282;-1.573;-20.019;2.390;-8.165;21.236;
4868;1.020;0.001;0.019;0.069;-88.928;1.070;0.458;-3.282;-1.573;-20.019;2.390;-8.165;21.236;
4869;1.020;0.001;0.019;0.069;-88.928;1.070;0.458;-3.282;-1.573;-20.019;2.390;-8.165;21.236;
4870;1.020;0.001;0.019;0.069;-88.928;1.070;0.458;-3.282;-1.573;-20.019;2.390;-8.165;21.236;
4871;1.020;0.001;0.019;0.069;-88.928;1.070;0.458;-3.282;-1.573;-20.019;2.390;-8.165;21.236;
4872;1.020;0.001;0.019;0.069;-88.928;1.070;0.458;-3.282;-1.573;-20.019;2.390;-8.165;21.236;
4873;1.020;0.001;0.019;0.069;-88.928;1.070;0.458;-3.282;-1.573;-20.019;2.390;-8.165;21.236;
4874;1.015;0.002;0.008;0.124;-89.529;0.455;0.687;-3.496;-1.664;-20.075;2.398;-8.180;21.330;
4875;1.015;0.002;0.008;0.124;-89.529;0.455;0.687;-3.496;-1.664;-20.075;2.398;-8.180;21.330;
4876;1.015;0.002;0.008;0.124;-89.529;0.455;0.687;-3.496;-1.664;-20.075;2.398;-8.180;21.330;
4877;1.015;0.002;0.008;0.124;-89.529;0.455;0.687;-3.496;-1.664;-20.075;2.398;-8.180;21.330;
4878;1.015;0.002;0.008;0.124;-89.529;0.455;0.687;-3.496;-1.664;-20.075;2.398;-8.180;21.330;
4879;1.015;0.002;0.008;0.124;-89.529;0.455;0.687;-3.496;-1.664;-20.075;2.398;-8.180;21.330;
4880;1.015;0.002;0.008;0.124;-89.529;0.455;0.687;-3.496;-1.664;-20.075;2.398;-8.180;21.330;
4881;1.015;0.002;0.008;0.124;-89.529;0.455;0.687;-3.496;-1.664;-20.075;2.398;-8.180;21.330;
4882;1.015;0.002;0.008;0.124;-89.529;0.455;0.687;-3.496;-1.664;-20.075;2.398;-8.180;21.3.0374;-1.939;-20.858;2.522;-8.574;21.236;
5121;1.007;-0.001;0.014;-0.056;-89.178;0.820;0.397;-3.344;-1.374;-20.875;2.516;-8.587;21.236;
5122;1.007;-0.001;0.014;-0.056;-89.178;0.820;0.397;-3.344;-1.374;-20.875;2.516;-8.587;21.236;
5123;1.007;-0.001;0.014;-0.056;-89.178;0.820;0.397;-3.344;-1.374;-20.875;2.516;-8.587;21.236;
5124;1.007;-0.001;0.014;-0.056;-89.178;0.820;0.397;-3.344;-1.374;-20.875;2.516;-8.587;21.236;
5125;1.007;-0.001;0.014;-0.056;-89.178;0.820;0.397;-3.344;-1.374;-20.875;2.516;-8.587;21.236;
5126;1.007;-0.001;0.014;-0.056;-89.178;0.820;0.397;-3.344;-1.374;-20.875;2.516;-8.587;21.236;
5127;1.007;-0.001;0.014;-0.056;-89.178;0.820;0.397;-3.344;-1.374;-20.875;2.516;-8.587;21.236;
5128;1.007;-0.001;0.014;-0.056;-89.178;0.820;0.397;-3.344;-1.374;-20.875;2.516;-8.587;21.236;
5129;1.007;-0.001;0.014;-0.056;-89.178;0.820;0.397;-3.344;-1.374;-20.875;2.516;-8.587;21.236;
5130;1.019;0.002;0.010;0.124;-89.451;0.535;0.504;-3.405;-1.634;-20.917;2.528;-8.603;21.236;
5131;1.019;0.002;0.010;0.124;-89.451;0.535;0.504;-3.405;-1.634;-20.917;2.528;-8.603;21.236;
5132;1.019;0.002;0.010;0.124;-89.451;0.535;0.504;-3.405;-1.634;-20.917;2.528;-8.603;21.236;
5133;1.019;0.002;0.010;0.124;-89.451;0.535;0.504;-3.405;-1.634;-20.917;2.528;-8.603;21.236;
5134;1.019;0.002;0.010;0.124;-89.451;0.535;0.504;-3.405;-1.634;-20.917;2.528;-8.603;21.236;
5135;1.019;0.002;0.010;0.124;-89.451;0.535;0.504;-3.405;-1.634;-20.917;2.528;-8.603;21.236;
5136;1.019;0.002;0.010;0.124;-89.451;0.535;0.504;-3.405;-1.634;-20.917;2.528;-8.603;21.236;
5137;1.019;0.002;0.010;0.124;-89.451;0.535;0.504;-3.405;-1.634;-20.917;2.528;-8.603;21.236;
5138;1.019;0.002;0.010;0.124;-89.451;0.535;0.504;-3.405;-1.634;-20.917;2.528;-8.603;21.236;
5139;1.019;0.002;0.010;0.124;-89.451;0.535;0.504;-3.405;-1.634;-20.917;2.528;-8.603;21.236;
5140;1.012;0.002;0.006;0.097;-89.628;0.359;0.504;-3.344;-1.328;-20.958;2.532;-8.617;21.236;
5141;1.012;0.002;0.006;0.097;-89.628;0.359;0.504;-3.344;-1.328;-20.958;2.532;-8.617;21.236;
5142;1.012;0.002;0.006;0.097;-89.628;0.359;0.504;-3.344;-1.328;-20.958;2.532;-8.617;21.236;
5143;1.012;0.002;0.006;0.097;-89.628;0.359;0.504;-3.344;-1.328;-20.958;2.532;-8.617;21.236;
5144;1.012;0.002;0.006;0.097;-89.628;0.359;0.504;-3.344;-1.328;-20.958;2.532;-8.617;21.236;
5145;1.012;0.002;0.006;0.097;-89.628;0.359;0.504;-3.344;-1.328;-20.958;2.532;-8.617;21.236;
5146;1.012;0.002;0.006;0.097;-89.628;0.359;0.504;-3.344;-1.328;-20.958;2.532;-8.617;21.236;
5147;1.012;0.002;0.006;0.097;-89.628;0.359;0.504;-3.344;-1.328;-20.958;2.532;-8.617;21.236;
5148;1.012;0.002;0.006;0.097;-89.628;0.359;0.504;-3.344;-1.328;-20.958;2.532;-8.617;21.236;
5149;1.012;0.002;0.006;0.097;-89.628;0.359;0.504;-3.344;-1.328;-20.958;2.532;-8.617;21.236;
5150;1.014;-0.002;0.011;-0.138;-89.378;0.607;0.656;-3.160;-1.634;-20.980;2.529;-8.634;21.283;
5151;1.014;-0.002;0.011;-0.138;-89.378;0.607;0.656;-3.160;-1.634;-20.980;2.529;-8.634;21.283;
5152;1.014;-0.002;0.011;-0.138;-89.378;0.607;0.656;-3.160;-1.634;-20.980;2.529;-8.634;21.283;
5153;1.014;-0.002;0.011;-0.138;-89.378;0.607;0.656;-3.160;-1.634;-20.980;2.529;-8.634;21.283;
5154;1.014;-0.002;0.011;-0.138;-89.378;0.607;0.656;-3.160;-1.634;-20.980;2.529;-8.634;21.283;
5155;1.014;-0.002;0.011;-0.138;-89.378;0.607;0.656;-3.160;-1.634;-20.980;2.529;-8.634;21.283;
5156;1.014;-0.002;0.011;-0.138;-89.378;0.607;0.656;-3.160;-1.634;-20.980;2.529;-8.634;21.283;
5157;1.014;-0.002;0.011;-0.138;-89.378;0.607;0.656;-3.160;-1.634;-20.980;2.529;-8.634;21.283;
5158;1.014;-0.002;0.011;-0.138;-89.378;0.607;0.656;-3.160;-1.634;-20.980;2.529;-8.634;21.283;
5159;1.014;-0.002;0.011;-0.138;-89.378;0.607;0.656;-3.160;-1.634;-20.980;2.529;-8.634;21.283;
5160;1.012;-0.001;0.018;-0.055;-88.989;1.009;0.473;-3.130;-1.496;-20.996;2.537;-8.650;21.189;
5161;1.012;-0.001;0.018;-0.055;-88.989;1.009;0.473;-3.130;-1.496;-20.996;2.537;-8.650;21.189;
5162;1.012;-0.001;0.018;-0.055;-88.989;1.009;0.473;-3.130;-1.496;-20.996;2.537;-8.650;21.189;
5163;1.012;-0.001;0.018;-0.055;-88.989;1.009;0.473;-3.130;-1.496;-20.996;2.537;-8.650;21.189;
5164;1.012;-0.001;0.018;-0.055;-88.989;1.009;0.473;-3.130;-1.496;-20.996;2.537;-8.650;21.189;
5165;1.012;-0.001;0.018;-0.055;-88.989;1.009;0.473;-3.130;-1.496;-20.996;2.537;-8.650;21.189;
5166;1.012;-0.001;0.018;-0.055;-88.989;1.009;0.473;-3.130;-1.496;-20.996;2.537;-8.650;21.189;
5167;1.012;-0.001;0.018;-0.055;-88.989;1.009;0.473;-3.130;-1.496;-20.996;2.537;-8.650;21.189;
5168;1.012;-0.001;0.018;-0.055;-88.989;1.009;0.473;-3.130;-1.496;-20.996;2.537;-8.650;21.189;
5169;1.013;0.000;0.012;0.000;-89.310;0.690;0.412;-3.344;-1.649;-21.040;2.543;-8.666;21.236;
5170;1.013;0.000;0.012;0.000;-89.310;0.690;0.412;-3.344;-1.649;-21.040;2.543;-8.666;21.236;
5171;1.013;0.000;0.012;0.000;-89.310;0.690;0.412;-3.344;-1.649;-21.040;2.543;-8.666;21.236;
5172;1.013;0.000;0.012;0.000;-89.310;0.690;0.412;-3.344;-1.649;-21.040;2.543;-8.666;21.236;
5173;1.013;0.000;0.012;0.000;-89.310;0.690;0.412;-3.344;-1.649;-21.040;2.543;-8.666;21.236;
5174;1.013;0.000;0.012;0.000;-89.310;0.690;0.412;-3.344;-1.649;-21.040;2.543;-8.666;21.236;
5175;1.013;0.000;0.012;0.000;-89.310;0.690;0.412;-3.344;-1.649;-21.040;2.543;-8.666;21.236;
5176
15405;1.012;-0.001;0.012;-0.055;-89.320;0.677;0.473;-3.282;-1.710;-21.805;2.648
-5406;1.021;0.003;0.019;0.164;-88.919;1.068;0.290;-3.252;-1.588;-21.819;2.660;-9.072;21.236;
5407;1.021;0.003;0.019;0.164;-88.919;1.068;0.290;-3.252;-1.588;-21.819;2.660;-9.072;21.236;
5408;1.021;0.003;0.019;0.164;-88.919;1.068;0.290;-3.252;-1.588;-21.819;2.660;-9.072;21.236;
5409;1.021;0.003;0.019;0.164;-88.919;1.068;0.290;-3.252;-1.588;-21.819;2.660;-9.072;21.236;
5410;1.021;0.003;0.019;0.164;-88.919;1.068;0.290;-3.252;-1.588;-21.819;2.660;-9.072;21.236;
5411;1.021;0.003;0.019;0.164;-88.919;1.068;0.290;-3.252;-1.588;-21.819;2.660;-9.072;21.236;
5412;1.021;0.003;0.019;0.164;-88.919;1.068;0.290;-3.252;-1.588;-21.819;2.660;-9.072;21.236;
5413;1.021;0.003;0.019;0.164;-88.919;1.068;0.290;-3.252;-1.588;-21.819;2.660;-9.072;21.236;
5414;1.021;0.003;0.019;0.164;-88.919;1.068;0.290;-3.252;-1.588;-21.819;2.660;-9.072;21.236;
5415;1.019;0.001;0.015;0.082;-89.132;0.865;0.443;-3.450;-1.695;-21.859;2.661;-9.088;21.236;
5416;1.019;0.001;0.015;0.082;-89.132;0.865;0.443;-3.450;-1.695;-21.859;2.661;-9.088;21.236;
5417;1.019;0.001;0.015;0.082;-89.132;0.865;0.443;-3.450;-1.695;-21.859;2.661;-9.088;21.236;
5418;1.019;0.001;0.015;0.082;-89.132;0.865;0.443;-3.450;-1.695;-21.859;2.661;-9.088;21.236;
5419;1.019;0.001;0.015;0.082;-89.132;0.865;0.443;-3.450;-1.695;-21.859;2.661;-9.088;21.236;
5420;1.019;0.001;0.015;0.082;-89.132;0.865;0.443;-3.450;-1.695;-21.859;2.661;-9.088;21.236;
5421;1.019;0.001;0.015;0.082;-89.132;0.865;0.443;-3.450;-1.695;-21.859;2.661;-9.088;21.236;
5422;1.019;0.001;0.015;0.082;-89.132;0.865;0.443;-3.450;-1.695;-21.859;2.661;-9.088;21.236;
5423;1.019;0.001;0.015;0.082;-89.132;0.865;0.443;-3.450;-1.695;-21.859;2.661;-9.088;21.236;
5424;1.019;0.001;0.015;0.082;-89.132;0.865;0.443;-3.450;-1.695;-21.859;2.661;-9.088;21.236;
5425;1.013;-0.004;0.021;-0.207;-88.768;1.215;0.443;-3.023;-1.466;-21.874;2.653;-9.104;21.236;
5426;1.013;-0.004;0.021;-0.207;-88.768;1.215;0.443;-3.023;-1.466;-21.874;2.653;-9.104;21.236;
5427;1.013;-0.004;0.021;-0.207;-88.768;1.215;0.443;-3.023;-1.466;-21.874;2.653;-9.104;21.236;
5428;1.013;-0.004;0.021;-0.207;-88.768;1.215;0.443;-3.023;-1.466;-21.874;2.653;-9.104;21.236;
5429;1.013;-0.004;0.021;-0.207;-88.768;1.215;0.443;-3.023;-1.466;-21.874;2.653;-9.104;21.236;
5430;1.013;-0.004;0.021;-0.207;-88.768;1.215;0.443;-3.023;-1.466;-21.874;2.653;-9.104;21.236;
5431;1.013;-0.004;0.021;-0.207;-88.768;1.215;0.443;-3.023;-1.466;-21.874;2.653;-9.104;21.236;
5432;1.013;-0.004;0.021;-0.207;-88.768;1.215;0.443;-3.023;-1.466;-21.874;2.653;-9.104;21.236;
5433;1.013;-0.004;0.021;-0.207;-88.768;1.215;0.443;-3.023;-1.466;-21.874;2.653;-9.104;21.236;
5434;1.012;-0.001;0.002;-0.041;-89.882;0.111;0.489;-3.344;-1.405;-21.950;2.665;-9.117;21.142;
5435;1.012;-0.001;0.002;-0.041;-89.882;0.111;0.489;-3.344;-1.405;-21.950;2.665;-9.117;21.142;
5436;1.012;-0.001;0.002;-0.041;-89.882;0.111;0.489;-3.344;-1.405;-21.950;2.665;-9.117;21.142;
5437;1.012;-0.001;0.002;-0.041;-89.882;0.111;0.489;-3.344;-1.405;-21.950;2.665;-9.117;21.142;
5438;1.012;-0.001;0.002;-0.041;-89.882;0.111;0.489;-3.344;-1.405;-21.950;2.665;-9.117;21.142;
5439;1.012;-0.001;0.002;-0.041;-89.882;0.111;0.489;-3.344;-1.405;-21.950;2.665;-9.117;21.142;
5440;1.012;-0.001;0.002;-0.041;-89.882;0.111;0.489;-3.344;-1.405;-21.950;2.665;-9.117;21.142;
5441;1.012;-0.001;0.002;-0.041;-89.882;0.111;0.489;-3.344;-1.405;-21.950;2.665;-9.117;21.142;
5442;1.012;-0.001;0.002;-0.041;-89.882;0.111;0.489;-3.344;-1.405;-21.950;2.665;-9.117;21.142;
5443;1.012;-0.001;0.002;-0.041;-89.882;0.111;0.489;-3.344;-1.405;-21.950;2.665;-9.117;21.142;
5444;1.016;-0.005;0.015;-0.275;-89.116;0.840;0.565;-3.359;-1.649;-21.954;2.661;-9.135;21.142;
5445;1.016;-0.005;0.015;-0.275;-89.116;0.840;0.565;-3.359;-1.649;-21.954;2.661;-9.135;21.142;
5446;1.016;-0.005;0.015;-0.275;-89.116;0.840;0.565;-3.359;-1.649;-21.954;2.661;-9.135;21.142;
5447;1.016;-0.005;0.015;-0.275;-89.116;0.840;0.565;-3.359;-1.649;-21.954;2.661;-9.135;21.142;
5448;1.016;-0.005;0.015;-0.275;-89.116;0.840;0.565;-3.359;-1.649;-21.954;2.661;-9.135;21.142;
5449;1.016;-0.005;0.015;-0.275;-89.116;0.840;0.565;-3.359;-1.649;-21.954;2.661;-9.135;21.142;
5450;1.016;-0.005;0.015;-0.275;-89.116;0.840;0.565;-3.359;-1.649;-21.954;2.661;-9.135;21.142;
5451;1.016;-0.005;0.015;-0.275;-89.116;0.840;0.565;-3.359;-1.649;-21.954;2.661;-9.135;21.142;
5452;1.016;-0.005;0.015;-0.275;-89.116;0.840;0.565;-3.359;-1.649;-21.954;2.661;-9.135;21.142;
5453;1.011;-0.001;0.012;-0.041;-89.321;0.678;0.687;-3.160;-1.634;-21.991;2.677;-9.151;21.189;
5454;1.011;-0.001;0.012;-0.041;-89.321;0.678;0.687;-3.160;-1.634;-21.991;2.677;-9.151;21.189;
5455;1.011;-0.001;0.012;-0.041;-89.321;0.678;0.687;-3.160;-1.634;-21.991;2.677;-9.151;21.189;
5456;1.011;-0.001;0.012;-0.041;-89.321;0.678;0.687;-3.160;-1.634;-21.991;2.677;-9.151;21.189;
5457;1.011;-0.001;0.012;-0.041;-89.321;0.678;0.687;-3.160;-1.634;-21.991;2.677;-9.151;21.189;
5458;1.011;-0.001;0.012;-0.041;-89.321;0.678;0.687;-3.160;-1.634;-21.991;2.677;-9.151;21.189;
5459;1.011;-0.001;0.012;-0.041;-89.321;0.678;0.687;-3.160;-1.634;-21.991;2.677;-9.151;21.189;
5460;1.011;-0.001;0.012;-0.041;-89.321;0.678;0.687;-3.160;-1.634;-21.991;2.677;-9.151;21.189;
5461;1.011;-0.001;0.012;.0557;-22.748;2.795;-9.522;21.377;
5689;1.017;0.003;0.007;0.151;-89.560;0.413;0.519;-3.282;-1.557;-22.748;2.795;-9.522;21.377;
5690;1.018;0.000;0.007;0.027;-89.600;0.399;0.550;-3.328;-1.573;-22.783;2.795;-9.538;21.283;
5691;1.018;0.000;0.007;0.027;-89.600;0.399;0.550;-3.328;-1.573;-22.783;2.795;-9.538;21.283;
5692;1.018;0.000;0.007;0.027;-89.600;0.399;0.550;-3.328;-1.573;-22.783;2.795;-9.538;21.283;
5693;1.018;0.000;0.007;0.027;-89.600;0.399;0.550;-3.328;-1.573;-22.783;2.795;-9.538;21.283;
5694;1.018;0.000;0.007;0.027;-89.600;0.399;0.550;-3.328;-1.573;-22.783;2.795;-9.538;21.283;
5695;1.018;0.000;0.007;0.027;-89.600;0.399;0.550;-3.328;-1.573;-22.783;2.795;-9.538;21.283;
5696;1.018;0.000;0.007;0.027;-89.600;0.399;0.550;-3.328;-1.573;-22.783;2.795;-9.538;21.283;
5697;1.018;0.000;0.007;0.027;-89.600;0.399;0.550;-3.328;-1.573;-22.783;2.795;-9.538;21.283;
5698;1.018;0.000;0.007;0.027;-89.600;0.399;0.550;-3.328;-1.573;-22.783;2.795;-9.538;21.283;
5699;1.022;-0.000;0.010;-0.027;-89.438;0.561;0.458;-3.252;-1.420;-22.806;2.797;-9.551;21.283;
5700;1.022;-0.000;0.010;-0.027;-89.438;0.561;0.458;-3.252;-1.420;-22.806;2.797;-9.551;21.283;
5701;1.022;-0.000;0.010;-0.027;-89.438;0.561;0.458;-3.252;-1.420;-22.806;2.797;-9.551;21.283;
5702;1.022;-0.000;0.010;-0.027;-89.438;0.561;0.458;-3.252;-1.420;-22.806;2.797;-9.551;21.283;
5703;1.022;-0.000;0.010;-0.027;-89.438;0.561;0.458;-3.252;-1.420;-22.806;2.797;-9.551;21.283;
5704;1.022;-0.000;0.010;-0.027;-89.438;0.561;0.458;-3.252;-1.420;-22.806;2.797;-9.551;21.283;
5705;1.022;-0.000;0.010;-0.027;-89.438;0.561;0.458;-3.252;-1.420;-22.806;2.797;-9.551;21.283;
5706;1.022;-0.000;0.010;-0.027;-89.438;0.561;0.458;-3.252;-1.420;-22.806;2.797;-9.551;21.283;
5707;1.022;-0.000;0.010;-0.027;-89.438;0.561;0.458;-3.252;-1.420;-22.806;2.797;-9.551;21.283;
5708;1.022;-0.000;0.010;-0.027;-89.438;0.561;0.458;-3.252;-1.420;-22.806;2.797;-9.551;21.283;
5709;1.012;0.002;0.014;0.097;-89.207;0.787;0.305;-3.282;-1.527;-22.831;2.805;-9.568;21.283;
5710;1.012;0.002;0.014;0.097;-89.207;0.787;0.305;-3.282;-1.527;-22.831;2.805;-9.568;21.283;
5711;1.012;0.002;0.014;0.097;-89.207;0.787;0.305;-3.282;-1.527;-22.831;2.805;-9.568;21.283;
5712;1.012;0.002;0.014;0.097;-89.207;0.787;0.305;-3.282;-1.527;-22.831;2.805;-9.568;21.283;
5713;1.012;0.002;0.014;0.097;-89.207;0.787;0.305;-3.282;-1.527;-22.831;2.805;-9.568;21.283;
5714;1.012;0.002;0.014;0.097;-89.207;0.787;0.305;-3.282;-1.527;-22.831;2.805;-9.568;21.283;
5715;1.012;0.002;0.014;0.097;-89.207;0.787;0.305;-3.282;-1.527;-22.831;2.805;-9.568;21.283;
5716;1.012;0.002;0.014;0.097;-89.207;0.787;0.305;-3.282;-1.527;-22.831;2.805;-9.568;21.283;
5717;1.012;0.002;0.014;0.097;-89.207;0.787;0.305;-3.282;-1.527;-22.831;2.805;-9.568;21.283;
5718;1.018;0.000;0.016;0.027;-89.106;0.893;0.397;-3.130;-1.557;-22.855;2.806;-9.582;21.283;
5719;1.018;0.000;0.016;0.027;-89.106;0.893;0.397;-3.130;-1.557;-22.855;2.806;-9.582;21.283;
5720;1.018;0.000;0.016;0.027;-89.106;0.893;0.397;-3.130;-1.557;-22.855;2.806;-9.582;21.283;
5721;1.018;0.000;0.016;0.027;-89.106;0.893;0.397;-3.130;-1.557;-22.855;2.806;-9.582;21.283;
5722;1.018;0.000;0.016;0.027;-89.106;0.893;0.397;-3.130;-1.557;-22.855;2.806;-9.582;21.283;
5723;1.018;0.000;0.016;0.027;-89.106;0.893;0.397;-3.130;-1.557;-22.855;2.806;-9.582;21.283;
5724;1.018;0.000;0.016;0.027;-89.106;0.893;0.397;-3.130;-1.557;-22.855;2.806;-9.582;21.283;
5725;1.018;0.000;0.016;0.027;-89.106;0.893;0.397;-3.130;-1.557;-22.855;2.806;-9.582;21.283;
5726;1.018;0.000;0.016;0.027;-89.106;0.893;0.397;-3.130;-1.557;-22.855;2.806;-9.582;21.283;
5727;1.018;0.000;0.016;0.027;-89.106;0.893;0.397;-3.130;-1.557;-22.855;2.806;-9.582;21.283;
5728;1.016;0.001;0.020;0.041;-88.871;1.129;0.489;-3.374;-1.450;-22.880;2.812;-9.598;21.189;
5729;1.016;0.001;0.020;0.041;-88.871;1.129;0.489;-3.374;-1.450;-22.880;2.812;-9.598;21.189;
5730;1.016;0.001;0.020;0.041;-88.871;1.129;0.489;-3.374;-1.450;-22.880;2.812;-9.598;21.189;
5731;1.016;0.001;0.020;0.041;-88.871;1.129;0.489;-3.374;-1.450;-22.880;2.812;-9.598;21.189;
5732;1.016;0.001;0.020;0.041;-88.871;1.129;0.489;-3.374;-1.450;-22.880;2.812;-9.598;21.189;
5733;1.016;0.001;0.020;0.041;-88.871;1.129;0.489;-3.374;-1.450;-22.880;2.812;-9.598;21.189;
5734;1.016;0.001;0.020;0.041;-88.871;1.129;0.489;-3.374;-1.450;-22.880;2.812;-9.598;21.189;
5735;1.016;0.001;0.020;0.041;-88.871;1.129;0.489;-3.374;-1.450;-22.880;2.812;-9.598;21.189;
5736;1.016;0.001;0.020;0.041;-88.871;1.129;0.489;-3.374;-1.450;-22.880;2.812;-9.598;21.189;
5737;1.011;-0.006;0.010;-0.332;-89.366;0.540;0.550;-3.313;-1.557;-22.930;2.802;-9.612;21.236;
5738;1.011;-0.006;0.010;-0.332;-89.366;0.540;0.550;-3.313;-1.557;-22.930;2.802;-9.612;21.236;
5739;1.011;-0.006;0.010;-0.332;-89.366;0.540;0.550;-3.313;-1.557;-22.930;2.802;-9.612;21.236;
5740;1.011;-0.006;0.010;-0.332;-89.366;0.540;0.550;-3.313;-1.557;-22.930;2.802;-9.612;21.236;
5741;1.011;-0.006;0.010;-0.332;-89.366;0.540;0.550;-3.313;-1.557;-22.930;2.802;-9.612;21.236;
5742;1.011;-0.006;0.010;-0.332;-89.366;0.540;0.550;-3.313;-1.557;-22.930;2.802;-9.612;21.236;
5743;1.011;-0.006;0.010;-0.332;-89.366;0.540;0.550;-3.313;-1.557;-22.930;2.802;-9.612;21.236;
5744;1.011;-0.006;0.010;-0.332;-89.366;0.540;0.550;-3.313;-1.557;-22.930;2.802;-9.612;21.236;
5745;1.011;-0.006;0.010;.0924;-9.977;21.236;
5968;1.018;0.000;0.011;0.027;-89.395;0.605;0.489;-3.206;-1.496;-23.684;2.924;-9.977;21.236;
5969;1.018;0.000;0.011;0.027;-89.395;0.605;0.489;-3.206;-1.496;-23.684;2.924;-9.977;21.236;
5970;1.018;0.000;0.011;0.027;-89.395;0.605;0.489;-3.206;-1.496;-23.684;2.924;-9.977;21.236;
5971;1.018;0.000;0.011;0.027;-89.395;0.605;0.489;-3.206;-1.496;-23.684;2.924;-9.977;21.236;
5972;1.018;0.000;0.011;0.027;-89.395;0.605;0.489;-3.206;-1.496;-23.684;2.924;-9.977;21.236;
5973;1.018;0.000;0.011;0.027;-89.395;0.605;0.489;-3.206;-1.496;-23.684;2.924;-9.977;21.236;
5974;1.017;0.002;0.014;0.110;-89.181;0.812;0.641;-3.450;-1.466;-23.710;2.934;-9.993;21.236;
5975;1.017;0.002;0.014;0.110;-89.181;0.812;0.641;-3.450;-1.466;-23.710;2.934;-9.993;21.236;
5976;1.017;0.002;0.014;0.110;-89.181;0.812;0.641;-3.450;-1.466;-23.710;2.934;-9.993;21.236;
5977;1.017;0.002;0.014;0.110;-89.181;0.812;0.641;-3.450;-1.466;-23.710;2.934;-9.993;21.236;
5978;1.017;0.002;0.014;0.110;-89.181;0.812;0.641;-3.450;-1.466;-23.710;2.934;-9.993;21.236;
5979;1.017;0.002;0.014;0.110;-89.181;0.812;0.641;-3.450;-1.466;-23.710;2.934;-9.993;21.236;
5980;1.017;0.002;0.014;0.110;-89.181;0.812;0.641;-3.450;-1.466;-23.710;2.934;-9.993;21.236;
5981;1.017;0.002;0.014;0.110;-89.181;0.812;0.641;-3.450;-1.466;-23.710;2.934;-9.993;21.236;
5982;1.017;0.002;0.014;0.110;-89.181;0.812;0.641;-3.450;-1.466;-23.710;2.934;-9.993;21.236;
5983;1.016;-0.003;0.015;-0.151;-89.119;0.868;0.412;-3.389;-1.542;-23.739;2.927;-10.007;21.236;
5984;1.016;-0.003;0.015;-0.151;-89.119;0.868;0.412;-3.389;-1.542;-23.739;2.927;-10.007;21.236;
5985;1.016;-0.003;0.015;-0.151;-89.119;0.868;0.412;-3.389;-1.542;-23.739;2.927;-10.007;21.236;
5986;1.016;-0.003;0.015;-0.151;-89.119;0.868;0.412;-3.389;-1.542;-23.739;2.927;-10.007;21.236;
5987;1.016;-0.003;0.015;-0.151;-89.119;0.868;0.412;-3.389;-1.542;-23.739;2.927;-10.007;21.236;
5988;1.016;-0.003;0.015;-0.151;-89.119;0.868;0.412;-3.389;-1.542;-23.739;2.927;-10.007;21.236;
5989;1.016;-0.003;0.015;-0.151;-89.119;0.868;0.412;-3.389;-1.542;-23.739;2.927;-10.007;21.236;
5990;1.016;-0.003;0.015;-0.151;-89.119;0.868;0.412;-3.389;-1.542;-23.739;2.927;-10.007;21.236;
5991;1.016;-0.003;0.015;-0.151;-89.119;0.868;0.412;-3.389;-1.542;-23.739;2.927;-10.007;21.236;
5992;1.016;-0.003;0.015;-0.151;-89.119;0.868;0.412;-3.389;-1.542;-23.739;2.927;-10.007;21.236;
5993;1.004;0.001;0.006;0.042;-89.649;0.348;0.321;-3.221;-1.618;-23.793;2.938;-10.025;21.283;
5994;1.004;0.001;0.006;0.042;-89.649;0.348;0.321;-3.221;-1.618;-23.793;2.938;-10.025;21.283;
5995;1.004;0.001;0.006;0.042;-89.649;0.348;0.321;-3.221;-1.618;-23.793;2.938;-10.025;21.283;
5996;1.004;0.001;0.006;0.042;-89.649;0.348;0.321;-3.221;-1.618;-23.793;2.938;-10.025;21.283;
5997;1.004;0.001;0.006;0.042;-89.649;0.348;0.321;-3.221;-1.618;-23.793;2.938;-10.025;21.283;
5998;1.004;0.001;0.006;0.042;-89.649;0.348;0.321;-3.221;-1.618;-23.793;2.938;-10.025;21.283;
5999;1.004;0.001;0.006;0.042;-89.649;0.348;0.321;-3.221;-1.618;-23.793;2.938;-10.025;21.283;
6000;1.004;0.001;0.006;0.042;-89.649;0.348;0.321;-3.221;-1.618;-23.793;2.938;-10.025;21.283;
6001;1.004;0.001;0.006;0.042;-89.649;0.348;0.321;-3.221;-1.618;-23.793;2.938;-10.025;21.283;
6002;1.012;-0.003;0.018;-0.180;-88.989;0.995;0.580;-3.313;-1.450;-23.797;2.935;-10.039;21.236;
6003;1.012;-0.003;0.018;-0.180;-88.989;0.995;0.580;-3.313;-1.450;-23.797;2.935;-10.039;21.236;
6004;1.012;-0.003;0.018;-0.180;-88.989;0.995;0.580;-3.313;-1.450;-23.797;2.935;-10.039;21.236;
6005;1.012;-0.003;0.018;-0.180;-88.989;0.995;0.580;-3.313;-1.450;-23.797;2.935;-10.039;21.236;
6006;1.012;-0.003;0.018;-0.180;-88.989;0.995;0.580;-3.313;-1.450;-23.797;2.935;-10.039;21.236;
6007;1.012;-0.003;0.018;-0.180;-88.989;0.995;0.580;-3.313;-1.450;-23.797;2.935;-10.039;21.236;
6008;1.012;-0.003;0.018;-0.180;-88.989;0.995;0.580;-3.313;-1.450;-23.797;2.935;-10.039;21.236;
6009;1.012;-0.003;0.018;-0.180;-88.989;0.995;0.580;-3.313;-1.450;-23.797;2.935;-10.039;21.236;
6010;1.012;-0.003;0.018;-0.180;-88.989;0.995;0.580;-3.313;-1.450;-23.797;2.935;-10.039;21.236;
6011;1.018;-0.001;0.004;-0.041;-89.776;0.220;0.473;-3.176;-1.435;-23.858;2.945;-10.053;21.236;
6012;1.018;-0.001;0.004;-0.041;-89.776;0.220;0.473;-3.176;-1.435;-23.858;2.945;-10.053;21.236;
6013;1.018;-0.001;0.004;-0.041;-89.776;0.220;0.473;-3.176;-1.435;-23.858;2.945;-10.053;21.236;
6014;1.018;-0.001;0.004;-0.041;-89.776;0.220;0.473;-3.176;-1.435;-23.858;2.945;-10.053;21.236;
6015;1.018;-0.001;0.004;-0.041;-89.776;0.220;0.473;-3.176;-1.435;-23.858;2.945;-10.053;21.236;
6016;1.018;-0.001;0.004;-0.041;-89.776;0.220;0.473;-3.176;-1.435;-23.858;2.945;-10.053;21.236;
6017;1.018;-0.001;0.004;-0.041;-89.776;0.220;0.473;-3.176;-1.435;-23.858;2.945;-10.053;21.236;
6018;1.018;-0.001;0.004;-0.041;-89.776;0.220;0.473;-3.176;-1.435;-23.858;2.945;-10.053;21.236;
6019;1.018;-0.001;0.004;-0.041;-89.776;0.220;0.473;-3.176;-1.435;-23.858;2.945;-10.053;21.236;
6020;1.018;-0.001;0.004;-0.041;-89.776;0.220;0.473;-3.176;-1.435;2
6241;1.012;0.002;0.013;0.124;-89.244;0.746;0.611;-3.282;-1.481;-24.598;3.066;-10.430;21.189;
6242;1.012;0.002;0.013;0.124;-89.244;0.746;0.611;-3.282;-1.481;-24.598;3.066;-10.430;21.189;
6243;1.012;0.002;0.013;0.124;-89.244;0.746;0.611;-3.282;-1.481;-24.598;3.066;-10.430;21.189;
6244;1.012;0.002;0.013;0.124;-89.244;0.746;0.611;-3.282;-1.481;-24.598;3.066;-10.430;21.189;
6245;1.015;-0.005;0.011;-0.289;-89.303;0.634;0.687;-3.344;-1.756;-24.634;3.057;-10.449;21.236;
6246;1.015;-0.005;0.011;-0.289;-89.303;0.634;0.687;-3.344;-1.756;-24.634;3.057;-10.449;21.236;
6247;1.015;-0.005;0.011;-0.289;-89.303;0.634;0.687;-3.344;-1.756;-24.634;3.057;-10.449;21.236;
6248;1.015;-0.005;0.011;-0.289;-89.303;0.634;0.687;-3.344;-1.756;-24.634;3.057;-10.449;21.236;
6249;1.015;-0.005;0.011;-0.289;-89.303;0.634;0.687;-3.344;-1.756;-24.634;3.057;-10.449;21.236;
6250;1.015;-0.005;0.011;-0.289;-89.303;0.634;0.687;-3.344;-1.756;-24.634;3.057;-10.449;21.236;
6251;1.015;-0.005;0.011;-0.289;-89.303;0.634;0.687;-3.344;-1.756;-24.634;3.057;-10.449;21.236;
6252;1.015;-0.005;0.011;-0.289;-89.303;0.634;0.687;-3.344;-1.756;-24.634;3.057;-10.449;21.236;
6253;1.015;-0.005;0.011;-0.289;-89.303;0.634;0.687;-3.344;-1.756;-24.634;3.057;-10.449;21.236;
6254;1.004;-0.000;0.009;-0.028;-89.498;0.501;0.412;-3.145;-1.664;-24.672;3.071;-10.465;21.236;
6255;1.004;-0.000;0.009;-0.028;-89.498;0.501;0.412;-3.145;-1.664;-24.672;3.071;-10.465;21.236;
6256;1.004;-0.000;0.009;-0.028;-89.498;0.501;0.412;-3.145;-1.664;-24.672;3.071;-10.465;21.236;
6257;1.004;-0.000;0.009;-0.028;-89.498;0.501;0.412;-3.145;-1.664;-24.672;3.071;-10.465;21.236;
6258;1.004;-0.000;0.009;-0.028;-89.498;0.501;0.412;-3.145;-1.664;-24.672;3.071;-10.465;21.236;
6259;1.004;-0.000;0.009;-0.028;-89.498;0.501;0.412;-3.145;-1.664;-24.672;3.071;-10.465;21.236;
6260;1.004;-0.000;0.009;-0.028;-89.498;0.501;0.412;-3.145;-1.664;-24.672;3.071;-10.465;21.236;
6261;1.004;-0.000;0.009;-0.028;-89.498;0.501;0.412;-3.145;-1.664;-24.672;3.071;-10.465;21.236;
6262;1.004;-0.000;0.009;-0.028;-89.498;0.501;0.412;-3.145;-1.664;-24.672;3.071;-10.465;21.236;
6263;1.010;0.002;0.013;0.097;-89.260;0.734;0.611;-3.160;-1.496;-24.692;3.082;-10.480;21.283;
6264;1.010;0.002;0.013;0.097;-89.260;0.734;0.611;-3.160;-1.496;-24.692;3.082;-10.480;21.283;
6265;1.010;0.002;0.013;0.097;-89.260;0.734;0.611;-3.160;-1.496;-24.692;3.082;-10.480;21.283;
6266;1.010;0.002;0.013;0.097;-89.260;0.734;0.611;-3.160;-1.496;-24.692;3.082;-10.480;21.283;
6267;1.010;0.002;0.013;0.097;-89.260;0.734;0.611;-3.160;-1.496;-24.692;3.082;-10.480;21.283;
6268;1.010;0.002;0.013;0.097;-89.260;0.734;0.611;-3.160;-1.496;-24.692;3.082;-10.480;21.283;
6269;1.010;0.002;0.013;0.097;-89.260;0.734;0.611;-3.160;-1.496;-24.692;3.082;-10.480;21.283;
6270;1.010;0.002;0.013;0.097;-89.260;0.734;0.611;-3.160;-1.496;-24.692;3.082;-10.480;21.283;
6271;1.010;0.002;0.013;0.097;-89.260;0.734;0.611;-3.160;-1.496;-24.692;3.082;-10.480;21.283;
6272;1.010;0.002;0.013;0.097;-89.260;0.734;0.611;-3.160;-1.496;-24.692;3.082;-10.480;21.283;
6273;1.014;0.000;0.015;0.000;-89.159;0.841;0.489;-3.481;-1.573;-24.723;3.083;-10.496;21.189;
6274;1.014;0.000;0.015;0.000;-89.159;0.841;0.489;-3.481;-1.573;-24.723;3.083;-10.496;21.189;
6275;1.014;0.000;0.015;0.000;-89.159;0.841;0.489;-3.481;-1.573;-24.723;3.083;-10.496;21.189;
6276;1.014;0.000;0.015;0.000;-89.159;0.841;0.489;-3.481;-1.573;-24.723;3.083;-10.496;21.189;
6277;1.014;0.000;0.015;0.000;-89.159;0.841;0.489;-3.481;-1.573;-24.723;3.083;-10.496;21.189;
6278;1.014;0.000;0.015;0.000;-89.159;0.841;0.489;-3.481;-1.573;-24.723;3.083;-10.496;21.189;
6279;1.014;0.000;0.015;0.000;-89.159;0.841;0.489;-3.481;-1.573;-24.723;3.083;-10.496;21.189;
6280;1.014;0.000;0.015;0.000;-89.159;0.841;0.489;-3.481;-1.573;-24.723;3.083;-10.496;21.189;
6281;1.014;0.000;0.015;0.000;-89.159;0.841;0.489;-3.481;-1.573;-24.723;3.083;-10.496;21.189;
6282;1.018;-0.002;0.017;-0.124;-89.030;0.962;0.397;-3.374;-1.435;-24.749;3.081;-10.510;21.189;
6283;1.018;-0.002;0.017;-0.124;-89.030;0.962;0.397;-3.374;-1.435;-24.749;3.081;-10.510;21.189;
6284;1.018;-0.002;0.017;-0.124;-89.030;0.962;0.397;-3.374;-1.435;-24.749;3.081;-10.510;21.189;
6285;1.018;-0.002;0.017;-0.124;-89.030;0.962;0.397;-3.374;-1.435;-24.749;3.081;-10.510;21.189;
6286;1.018;-0.002;0.017;-0.124;-89.030;0.962;0.397;-3.374;-1.435;-24.749;3.081;-10.510;21.189;
6287;1.018;-0.002;0.017;-0.124;-89.030;0.962;0.397;-3.374;-1.435;-24.749;3.081;-10.510;21.189;
6288;1.018;-0.002;0.017;-0.124;-89.030;0.962;0.397;-3.374;-1.435;-24.749;3.081;-10.510;21.189;
6289;1.018;-0.002;0.017;-0.124;-89.030;0.962;0.397;-3.374;-1.435;-24.749;3.081;-10.510;21.189;
6290;1.018;-0.002;0.017;-0.124;-89.030;0.962;0.397;-3.374;-1.435;-24.749;3.081;-10.510;21.189;
6291;1.012;-0.001;0.010;-0.069;-89.402;0.594;0.626;-3.450;-1.618;-24.796;3.089;-10.526;21.283;
6292;1.012;-0.001;0.010;-0.069;-89.402;0.594;0.626;-3.450;-1.618;-24.796;3.089;-10.526;21.283;
6293;1.012;-0.001;0.010;-0.069;-89.402;0.594;0.626;-3.450;-1.618;-24.796;3.089;-10.526;21.283;
6294;1.012;-0.001;0.010;-0.069;-89.402;0.594;0.626;-3.450;-1.618;-24.796;3.089;-10.526;21.283;
6295;1.012;-0.001;0.010;-0.069;-89.402;0.594;0.626;-3.450;-1.618;-24.796;3.089;-10.526;21.283;.6015;0.009;0.010;0.510;-89.218;0.592;0.489;-3.328;-1.557;-25.583;3.225;-10.926;21.142;
6530;1.015;0.009;0.010-010.926;21.142;
6531;1.015;0.009;0.010;0.510;-89.218;0.592;0.489;-3.328;-1.557;-25.583;3.225;-10.926;21.142;
6532;1.015;0.009;0.010;0.510;-89.218;0.592;0.489;-3.328;-1.557;-25.583;3.225;-10.926;21.142;
6533;1.015;0.009;0.010;0.510;-89.218;0.592;0.489;-3.328;-1.557;-25.583;3.225;-10.926;21.142;
6534;1.015;0.009;0.010;0.510;-89.218;0.592;0.489;-3.328;-1.557;-25.583;3.225;-10.926;21.142;
6535;1.015;0.009;0.010;0.510;-89.218;0.592;0.489;-3.328;-1.557;-25.583;3.225;-10.926;21.142;
6536;1.014;0.002;0.010;0.124;-89.421;0.566;0.427;-3.450;-1.649;-25.623;3.214;-10.941;21.283;
6537;1.014;0.002;0.010;0.124;-89.421;0.566;0.427;-3.450;-1.649;-25.623;3.214;-10.941;21.283;
6538;1.014;0.002;0.010;0.124;-89.421;0.566;0.427;-3.450;-1.649;-25.623;3.214;-10.941;21.283;
6539;1.014;0.002;0.010;0.124;-89.421;0.566;0.427;-3.450;-1.649;-25.623;3.214;-10.941;21.283;
6540;1.014;0.002;0.010;0.124;-89.421;0.566;0.427;-3.450;-1.649;-25.623;3.214;-10.941;21.283;
6541;1.014;0.002;0.010;0.124;-89.421;0.566;0.427;-3.450;-1.649;-25.623;3.214;-10.941;21.283;
6542;1.014;0.002;0.010;0.124;-89.421;0.566;0.427;-3.450;-1.649;-25.623;3.214;-10.941;21.283;
6543;1.014;0.002;0.010;0.124;-89.421;0.566;0.427;-3.450;-1.649;-25.623;3.214;-10.941;21.283;
6544;1.014;0.002;0.010;0.124;-89.421;0.566;0.427;-3.450;-1.649;-25.623;3.214;-10.941;21.283;
6545;1.014;0.002;0.010;0.124;-89.421;0.566;0.427;-3.450;-1.649;-25.623;3.214;-10.941;21.283;
6546;1.014;0.000;0.014;0.028;-89.200;0.800;0.611;-3.328;-1.588;-25.648;3.216;-10.958;21.236;
6547;1.014;0.000;0.014;0.028;-89.200;0.800;0.611;-3.328;-1.588;-25.648;3.216;-10.958;21.236;
6548;1.014;0.000;0.014;0.028;-89.200;0.800;0.611;-3.328;-1.588;-25.648;3.216;-10.958;21.236;
6549;1.014;0.000;0.014;0.028;-89.200;0.800;0.611;-3.328;-1.588;-25.648;3.216;-10.958;21.236;
6550;1.014;0.000;0.014;0.028;-89.200;0.800;0.611;-3.328;-1.588;-25.648;3.216;-10.958;21.236;
6551;1.014;0.000;0.014;0.028;-89.200;0.800;0.611;-3.328;-1.588;-25.648;3.216;-10.958;21.236;
6552;1.014;0.000;0.014;0.028;-89.200;0.800;0.611;-3.328;-1.588;-25.648;3.216;-10.958;21.236;
